Date:	31/01/2022		
Time:	15:57		
Sample name:	JC36_74_3		
Position:	695.895018	mm	
Sample surface:	7.174008	cm	
Tube anode:	Mo		
Tube voltage:	30	kV	
Tube current:	30	mA	
Comments	not in position		
Gain	2.150000		
peaking_time	0.300000	m-sec	
trigger_threshold	40.000000	V	
mca_bin_width	2.000000	no:	
number_mca_channels	2048.000000	no:	
gap_time	0.100000	m-sec	
trigger_peaking_time	0.050000	m-sec	
livetime	12.436560	seconds	
runtime	15.000007	seconds	
input_count_rate	79590.898812	cps	
output_count_rate	65989.102538	cps	
triggers	1153732.000000	seconds	
events_in_run	945938.000000	seconds	
channel	content		
 1.00	 0.00
 2.00	 0.00
 3.00	 0.00
 4.00	 0.00
 5.00	 0.00
 6.00	 0.00
 7.00	 0.00
 8.00	 0.00
 9.00	 0.00
10.00	 0.00
11.00	 0.00
12.00	 0.00
13.00	 0.00
14.00	 0.00
15.00	 0.00
16.00	 0.00
17.00	 0.00
18.00	 0.00
19.00	 0.00
20.00	 0.00
21.00	 0.00
22.00	 0.00
23.00	 0.00
24.00	 0.00
25.00	 0.00
26.00	 0.00
27.00	 0.00
28.00	 0.00
29.00	 0.00
30.00	 0.00
31.00	327.00
32.00	328.00
33.00	311.00
34.00	329.00
35.00	334.00
36.00	301.00
37.00	307.00
38.00	347.00
39.00	338.00
40.00	355.00
41.00	295.00
42.00	335.00
43.00	338.00
44.00	317.00
45.00	373.00
46.00	423.00
47.00	446.00
48.00	548.00
49.00	651.00
50.00	860.00
51.00	1235.00
52.00	1838.00
53.00	2305.00
54.00	2887.00
55.00	3999.00
56.00	5340.00
57.00	7295.00
58.00	10337.00
59.00	14270.00
60.00	18576.00
61.00	21428.00
62.00	23766.00
63.00	24635.00
64.00	24312.00
65.00	23691.00
66.00	22938.00
67.00	22262.00
68.00	21207.00
69.00	21227.00
70.00	20623.00
71.00	20514.00
72.00	20488.00
73.00	20291.00
74.00	20197.00
75.00	20019.00
76.00	19941.00
77.00	20026.00
78.00	19880.00
79.00	19721.00
80.00	20034.00
81.00	19879.00
82.00	19830.00
83.00	20077.00
84.00	20772.00
85.00	20944.00
86.00	20967.00
87.00	20528.00
88.00	20202.00
89.00	19744.00
90.00	19228.00
91.00	18557.00
92.00	18228.00
93.00	17950.00
94.00	17444.00
95.00	17119.00
96.00	17149.00
97.00	16893.00
98.00	16799.00
99.00	16477.00
100.00	16288.00
101.00	16266.00
102.00	16089.00
103.00	15731.00
104.00	15882.00
105.00	15458.00
106.00	15419.00
107.00	15050.00
108.00	15124.00
109.00	14821.00
110.00	14544.00
111.00	14395.00
112.00	14296.00
113.00	13917.00
114.00	13715.00
115.00	13736.00
116.00	13527.00
117.00	13691.00
118.00	13527.00
119.00	13524.00
120.00	13245.00
121.00	13056.00
122.00	12709.00
123.00	12710.00
124.00	12405.00
125.00	12211.00
126.00	12056.00
127.00	11756.00
128.00	11658.00
129.00	11577.00
130.00	11415.00
131.00	11387.00
132.00	11266.00
133.00	11427.00
134.00	11040.00
135.00	10966.00
136.00	10706.00
137.00	10929.00
138.00	11271.00
139.00	11624.00
140.00	11974.00
141.00	12538.00
142.00	13125.00
143.00	14355.00
144.00	14849.00
145.00	15436.00
146.00	15355.00
147.00	15092.00
148.00	14788.00
149.00	13860.00
150.00	13526.00
151.00	13147.00
152.00	13023.00
153.00	12672.00
154.00	12343.00
155.00	12279.00
156.00	11622.00
157.00	10977.00
158.00	10619.00
159.00	10212.00
160.00	10174.00
161.00	10565.00
162.00	11804.00
163.00	14303.00
164.00	18131.00
165.00	23744.00
166.00	30839.00
167.00	39204.00
168.00	47359.00
169.00	54465.00
170.00	58557.00
171.00	59526.00
172.00	56212.00
173.00	50464.00
174.00	42582.00
175.00	35004.00
176.00	27732.00
177.00	22439.00
178.00	18452.00
179.00	16733.00
180.00	15695.00
181.00	15289.00
182.00	15681.00
183.00	17324.00
184.00	19787.00
185.00	23774.00
186.00	28887.00
187.00	34787.00
188.00	41237.00
189.00	46336.00
190.00	50222.00
191.00	50826.00
192.00	49367.00
193.00	44960.00
194.00	39592.00
195.00	32056.00
196.00	25812.00
197.00	19985.00
198.00	15897.00
199.00	12582.00
200.00	10330.00
201.00	9237.00
202.00	8472.00
203.00	7919.00
204.00	7639.00
205.00	7775.00
206.00	7561.00
207.00	7545.00
208.00	7486.00
209.00	7513.00
210.00	7492.00
211.00	7491.00
212.00	7732.00
213.00	8052.00
214.00	8048.00
215.00	8498.00
216.00	9187.00
217.00	9794.00
218.00	10919.00
219.00	12082.00
220.00	13225.00
221.00	14658.00
222.00	15883.00
223.00	16426.00
224.00	17099.00
225.00	17143.00
226.00	16513.00
227.00	15674.00
228.00	14369.00
229.00	12883.00
230.00	11599.00
231.00	9992.00
232.00	8862.00
233.00	8018.00
234.00	7483.00
235.00	6958.00
236.00	6708.00
237.00	6660.00
238.00	6493.00
239.00	6610.00
240.00	6634.00
241.00	6772.00
242.00	7041.00
243.00	7362.00
244.00	8032.00
245.00	9021.00
246.00	11389.00
247.00	14833.00
248.00	19918.00
249.00	28431.00
250.00	39364.00
251.00	54173.00
252.00	71998.00
253.00	91489.00
254.00	110038.00
255.00	127034.00
256.00	138920.00
257.00	142014.00
258.00	137648.00
259.00	127246.00
260.00	110473.00
261.00	91003.00
262.00	71596.00
263.00	53313.00
264.00	38527.00
265.00	27778.00
266.00	20401.00
267.00	15599.00
268.00	13691.00
269.00	13123.00
270.00	13716.00
271.00	15076.00
272.00	16493.00
273.00	18484.00
274.00	19896.00
275.00	20443.00
276.00	20752.00
277.00	20615.00
278.00	19832.00
279.00	18467.00
280.00	17657.00
281.00	17215.00
282.00	17579.00
283.00	18895.00
284.00	21453.00
285.00	24695.00
286.00	28090.00
287.00	31983.00
288.00	35153.00
289.00	37405.00
290.00	37915.00
291.00	36364.00
292.00	33652.00
293.00	29794.00
294.00	25417.00
295.00	20903.00
296.00	17116.00
297.00	13701.00
298.00	11146.00
299.00	9348.00
300.00	8228.00
301.00	7391.00
302.00	7165.00
303.00	7245.00
304.00	7414.00
305.00	7571.00
306.00	8123.00
307.00	8817.00
308.00	9693.00
309.00	10592.00
310.00	11919.00
311.00	13492.00
312.00	15641.00
313.00	19338.00
314.00	24610.00
315.00	32893.00
316.00	44208.00
317.00	59761.00
318.00	80353.00
319.00	104292.00
320.00	131300.00
321.00	157759.00
322.00	183264.00
323.00	202003.00
324.00	212135.00
325.00	212697.00
326.00	202106.00
327.00	183512.00
328.00	157308.00
329.00	130591.00
330.00	103139.00
331.00	77899.00
332.00	56596.00
333.00	40399.00
334.00	28374.00
335.00	20297.00
336.00	15282.00
337.00	12588.00
338.00	11657.00
339.00	11866.00
340.00	12891.00
341.00	14963.00
342.00	18419.00
343.00	22828.00
344.00	29836.00
345.00	39841.00
346.00	54816.00
347.00	77583.00
348.00	113627.00
349.00	168007.00
350.00	252269.00
351.00	376326.00
352.00	557433.00
353.00	806418.00
354.00	1129044.00
355.00	1524762.00
356.00	1984802.00
357.00	2465971.00
358.00	2940240.00
359.00	3345772.00
360.00	3646890.00
361.00	3776926.00
362.00	3743216.00
363.00	3538763.00
364.00	3197977.00
365.00	2749998.00
366.00	2260910.00
367.00	1771829.00
368.00	1331343.00
369.00	953230.00
370.00	655999.00
371.00	432216.00
372.00	276331.00
373.00	170905.00
374.00	105711.00
375.00	67674.00
376.00	47197.00
377.00	37549.00
378.00	34803.00
379.00	37738.00
380.00	44597.00
381.00	57431.00
382.00	75386.00
383.00	100898.00
384.00	135450.00
385.00	179856.00
386.00	234613.00
387.00	297718.00
388.00	364442.00
389.00	431880.00
390.00	492604.00
391.00	540895.00
392.00	569524.00
393.00	575363.00
394.00	556527.00
395.00	517713.00
396.00	461014.00
397.00	392280.00
398.00	320595.00
399.00	251609.00
400.00	189950.00
401.00	137721.00
402.00	96292.00
403.00	65255.00
404.00	43165.00
405.00	28289.00
406.00	18743.00
407.00	12831.00
408.00	9090.00
409.00	7293.00
410.00	6093.00
411.00	5513.00
412.00	5266.00
413.00	5145.00
414.00	5080.00
415.00	5125.00
416.00	5045.00
417.00	5235.00
418.00	5178.00
419.00	5292.00
420.00	5309.00
421.00	5366.00
422.00	5274.00
423.00	5724.00
424.00	5990.00
425.00	6316.00
426.00	7259.00
427.00	8289.00
428.00	10128.00
429.00	12779.00
430.00	16684.00
431.00	21934.00
432.00	28602.00
433.00	37369.00
434.00	48146.00
435.00	59698.00
436.00	71936.00
437.00	84990.00
438.00	96523.00
439.00	104838.00
440.00	110865.00
441.00	112938.00
442.00	110782.00
443.00	104666.00
444.00	94735.00
445.00	84035.00
446.00	72022.00
447.00	60061.00
448.00	49592.00
449.00	40217.00
450.00	33328.00
451.00	28313.00
452.00	24844.00
453.00	22350.00
454.00	20670.00
455.00	19321.00
456.00	18441.00
457.00	17487.00
458.00	16132.00
459.00	14854.00
460.00	13778.00
461.00	12587.00
462.00	11689.00
463.00	11080.00
464.00	10664.00
465.00	10756.00
466.00	10561.00
467.00	11158.00
468.00	12065.00
469.00	12860.00
470.00	13619.00
471.00	14996.00
472.00	16184.00
473.00	17501.00
474.00	18935.00
475.00	20961.00
476.00	22599.00
477.00	24696.00
478.00	26859.00
479.00	28256.00
480.00	30276.00
481.00	31128.00
482.00	31691.00
483.00	31497.00
484.00	30550.00
485.00	28922.00
486.00	26706.00
487.00	24507.00
488.00	22085.00
489.00	19537.00
490.00	17246.00
491.00	15223.00
492.00	13804.00
493.00	12251.00
494.00	11157.00
495.00	10790.00
496.00	10497.00
497.00	10403.00
498.00	10165.00
499.00	10264.00
500.00	10560.00
501.00	10818.00
502.00	11015.00
503.00	11693.00
504.00	11616.00
505.00	11880.00
506.00	12509.00
507.00	12931.00
508.00	13415.00
509.00	13816.00
510.00	14284.00
511.00	15109.00
512.00	15537.00
513.00	16181.00
514.00	16688.00
515.00	17531.00
516.00	18261.00
517.00	19484.00
518.00	19991.00
519.00	21491.00
520.00	23149.00
521.00	24709.00
522.00	26975.00
523.00	28726.00
524.00	31122.00
525.00	32986.00
526.00	35102.00
527.00	36324.00
528.00	37456.00
529.00	37581.00
530.00	37158.00
531.00	35769.00
532.00	34190.00
533.00	31706.00
534.00	29187.00
535.00	27241.00
536.00	24567.00
537.00	22810.00
538.00	21171.00
539.00	19562.00
540.00	18671.00
541.00	18170.00
542.00	17976.00
543.00	17368.00
544.00	17535.00
545.00	17725.00
546.00	17857.00
547.00	18184.00
548.00	18368.00
549.00	18441.00
550.00	18982.00
551.00	19002.00
552.00	19505.00
553.00	19668.00
554.00	19895.00
555.00	20491.00
556.00	20710.00
557.00	21087.00
558.00	21403.00
559.00	21853.00
560.00	21840.00
561.00	22599.00
562.00	23532.00
563.00	24416.00
564.00	25175.00
565.00	27066.00
566.00	29259.00
567.00	32116.00
568.00	34779.00
569.00	38367.00
570.00	41587.00
571.00	45967.00
572.00	49569.00
573.00	52895.00
574.00	55993.00
575.00	57965.00
576.00	58393.00
577.00	58201.00
578.00	56732.00
579.00	53968.00
580.00	50907.00
581.00	46772.00
582.00	42814.00
583.00	38280.00
584.00	34850.00
585.00	31335.00
586.00	28458.00
587.00	26031.00
588.00	24336.00
589.00	23151.00
590.00	22468.00
591.00	21726.00
592.00	21924.00
593.00	21684.00
594.00	22253.00
595.00	22548.00
596.00	23234.00
597.00	23715.00
598.00	24741.00
599.00	25415.00
600.00	26243.00
601.00	27804.00
602.00	29094.00
603.00	31269.00
604.00	34372.00
605.00	38905.00
606.00	44870.00
607.00	55862.00
608.00	70858.00
609.00	94700.00
610.00	129157.00
611.00	180184.00
612.00	251131.00
613.00	346788.00
614.00	475378.00
615.00	638975.00
616.00	838967.00
617.00	1075960.00
618.00	1344945.00
619.00	1637900.00
620.00	1937823.00
621.00	2222708.00
622.00	2486304.00
623.00	2698062.00
624.00	2835819.00
625.00	2897411.00
626.00	2874934.00
627.00	2768981.00
628.00	2582820.00
629.00	2340051.00
630.00	2061959.00
631.00	1766012.00
632.00	1466787.00
633.00	1185876.00
634.00	934398.00
635.00	715783.00
636.00	536565.00
637.00	394216.00
638.00	286031.00
639.00	204666.00
640.00	147850.00
641.00	107616.00
642.00	81156.00
643.00	63903.00
644.00	53146.00
645.00	45754.00
646.00	41624.00
647.00	39217.00
648.00	37894.00
649.00	36993.00
650.00	36697.00
651.00	36362.00
652.00	36545.00
653.00	36863.00
654.00	37210.00
655.00	37383.00
656.00	37906.00
657.00	37995.00
658.00	38218.00
659.00	39201.00
660.00	40033.00
661.00	40300.00
662.00	40925.00
663.00	41737.00
664.00	42751.00
665.00	44155.00
666.00	45302.00
667.00	46618.00
668.00	48175.00
669.00	50629.00
670.00	52924.00
671.00	56429.00
672.00	60823.00
673.00	67801.00
674.00	75093.00
675.00	85856.00
676.00	100193.00
677.00	117644.00
678.00	140627.00
679.00	169065.00
680.00	200366.00
681.00	239103.00
682.00	280465.00
683.00	322423.00
684.00	367093.00
685.00	406900.00
686.00	441153.00
687.00	469422.00
688.00	486387.00
689.00	494907.00
690.00	487361.00
691.00	469963.00
692.00	443448.00
693.00	407061.00
694.00	365867.00
695.00	321295.00
696.00	276652.00
697.00	233457.00
698.00	195065.00
699.00	160554.00
700.00	131603.00
701.00	108013.00
702.00	89943.00
703.00	75166.00
704.00	64691.00
705.00	57702.00
706.00	52900.00
707.00	49652.00
708.00	47357.00
709.00	46878.00
710.00	46135.00
711.00	46064.00
712.00	46544.00
713.00	47363.00
714.00	48507.00
715.00	49821.00
716.00	51193.00
717.00	51987.00
718.00	53810.00
719.00	56016.00
720.00	57249.00
721.00	58739.00
722.00	61539.00
723.00	62881.00
724.00	64689.00
725.00	66387.00
726.00	67536.00
727.00	68802.00
728.00	69308.00
729.00	70136.00
730.00	69530.00
731.00	68766.00
732.00	67491.00
733.00	65693.00
734.00	64559.00
735.00	62625.00
736.00	60723.00
737.00	59359.00
738.00	57907.00
739.00	55801.00
740.00	54635.00
741.00	53739.00
742.00	52969.00
743.00	51521.00
744.00	51191.00
745.00	50970.00
746.00	51200.00
747.00	50681.00
748.00	50492.00
749.00	51013.00
750.00	50529.00
751.00	50928.00
752.00	51224.00
753.00	51006.00
754.00	50938.00
755.00	51156.00
756.00	51286.00
757.00	51480.00
758.00	51376.00
759.00	51642.00
760.00	52216.00
761.00	52296.00
762.00	52444.00
763.00	53064.00
764.00	53407.00
765.00	54541.00
766.00	54537.00
767.00	55476.00
768.00	55853.00
769.00	56727.00
770.00	57676.00
771.00	58507.00
772.00	59486.00
773.00	60966.00
774.00	63004.00
775.00	64453.00
776.00	65862.00
777.00	68452.00
778.00	70411.00
779.00	72864.00
780.00	75404.00
781.00	78168.00
782.00	80801.00
783.00	83270.00
784.00	85677.00
785.00	88222.00
786.00	90561.00
787.00	93122.00
788.00	95089.00
789.00	96995.00
790.00	98920.00
791.00	100228.00
792.00	101291.00
793.00	103272.00
794.00	103114.00
795.00	106044.00
796.00	106400.00
797.00	107122.00
798.00	107184.00
799.00	108654.00
800.00	109423.00
801.00	109741.00
802.00	111353.00
803.00	112365.00
804.00	114568.00
805.00	116391.00
806.00	118874.00
807.00	122906.00
808.00	127741.00
809.00	132626.00
810.00	138042.00
811.00	146074.00
812.00	152782.00
813.00	160337.00
814.00	168301.00
815.00	176576.00
816.00	182984.00
817.00	187308.00
818.00	192094.00
819.00	193066.00
820.00	191986.00
821.00	189556.00
822.00	183974.00
823.00	177121.00
824.00	168818.00
825.00	160005.00
826.00	150336.00
827.00	141175.00
828.00	131636.00
829.00	123028.00
830.00	116110.00
831.00	110608.00
832.00	104507.00
833.00	101884.00
834.00	99163.00
835.00	97608.00
836.00	96184.00
837.00	96972.00
838.00	96557.00
839.00	96698.00
840.00	97714.00
841.00	97754.00
842.00	97492.00
843.00	98763.00
844.00	98376.00
845.00	97969.00
846.00	97778.00
847.00	96362.00
848.00	96252.00
849.00	95182.00
850.00	93630.00
851.00	93478.00
852.00	92921.00
853.00	91617.00
854.00	91807.00
855.00	90684.00
856.00	90503.00
857.00	90395.00
858.00	90081.00
859.00	90180.00
860.00	90096.00
861.00	90599.00
862.00	91373.00
863.00	91078.00
864.00	91414.00
865.00	91459.00
866.00	92370.00
867.00	91923.00
868.00	93015.00
869.00	92917.00
870.00	93002.00
871.00	93364.00
872.00	93160.00
873.00	93641.00
874.00	94443.00
875.00	94145.00
876.00	94188.00
877.00	94941.00
878.00	95178.00
879.00	96169.00
880.00	95385.00
881.00	96643.00
882.00	97118.00
883.00	97509.00
884.00	98148.00
885.00	99223.00
886.00	99753.00
887.00	100252.00
888.00	101985.00
889.00	102474.00
890.00	103757.00
891.00	105104.00
892.00	106677.00
893.00	107494.00
894.00	110240.00
895.00	110161.00
896.00	112237.00
897.00	114354.00
898.00	115885.00
899.00	117558.00
900.00	118632.00
901.00	120862.00
902.00	121859.00
903.00	123999.00
904.00	125183.00
905.00	126471.00
906.00	127709.00
907.00	128733.00
908.00	129842.00
909.00	131534.00
910.00	131594.00
911.00	132669.00
912.00	134700.00
913.00	134756.00
914.00	135143.00
915.00	136034.00
916.00	136724.00
917.00	137633.00
918.00	137988.00
919.00	138522.00
920.00	139360.00
921.00	139391.00
922.00	140227.00
923.00	141344.00
924.00	142668.00
925.00	143859.00
926.00	144834.00
927.00	145475.00
928.00	147530.00
929.00	148680.00
930.00	150222.00
931.00	152326.00
932.00	155213.00
933.00	157327.00
934.00	160700.00
935.00	163814.00
936.00	166624.00
937.00	170844.00
938.00	173864.00
939.00	177900.00
940.00	180173.00
941.00	182221.00
942.00	185327.00
943.00	185877.00
944.00	185437.00
945.00	185097.00
946.00	182366.00
947.00	180365.00
948.00	177375.00
949.00	172682.00
950.00	169006.00
951.00	163599.00
952.00	159330.00
953.00	156098.00
954.00	153294.00
955.00	149838.00
956.00	146675.00
957.00	144509.00
958.00	143035.00
959.00	142225.00
960.00	141132.00
961.00	140866.00
962.00	139416.00
963.00	140356.00
964.00	140454.00
965.00	141015.00
966.00	141770.00
967.00	142512.00
968.00	142441.00
969.00	143727.00
970.00	144114.00
971.00	144309.00
972.00	143792.00
973.00	143373.00
974.00	142493.00
975.00	141395.00
976.00	140289.00
977.00	139319.00
978.00	137150.00
979.00	136241.00
980.00	134128.00
981.00	133231.00
982.00	131086.00
983.00	130312.00
984.00	128521.00
985.00	127783.00
986.00	127491.00
987.00	125542.00
988.00	125373.00
989.00	125127.00
990.00	124726.00
991.00	124378.00
992.00	123695.00
993.00	123660.00
994.00	123357.00
995.00	122971.00
996.00	122424.00
997.00	122640.00
998.00	122449.00
999.00	121509.00
1000.00	121869.00
1001.00	121537.00
1002.00	121548.00
1003.00	122066.00
1004.00	121634.00
1005.00	122188.00
1006.00	121713.00
1007.00	121413.00
1008.00	121872.00
1009.00	122516.00
1010.00	122239.00
1011.00	122193.00
1012.00	122865.00
1013.00	122305.00
1014.00	122863.00
1015.00	123259.00
1016.00	123862.00
1017.00	123886.00
1018.00	124171.00
1019.00	124511.00
1020.00	125283.00
1021.00	125732.00
1022.00	126693.00
1023.00	126894.00
1024.00	127757.00
1025.00	128183.00
1026.00	128096.00
1027.00	128808.00
1028.00	128680.00
1029.00	128853.00
1030.00	129163.00
1031.00	129502.00
1032.00	129673.00
1033.00	129387.00
1034.00	129204.00
1035.00	128468.00
1036.00	128731.00
1037.00	128819.00
1038.00	128181.00
1039.00	129111.00
1040.00	128942.00
1041.00	128875.00
1042.00	129096.00
1043.00	129699.00
1044.00	130201.00
1045.00	129945.00
1046.00	130117.00
1047.00	131304.00
1048.00	131150.00
1049.00	131743.00
1050.00	131888.00
1051.00	132700.00
1052.00	132793.00
1053.00	133155.00
1054.00	133870.00
1055.00	134392.00
1056.00	135036.00
1057.00	136159.00
1058.00	136311.00
1059.00	136396.00
1060.00	136402.00
1061.00	136851.00
1062.00	137586.00
1063.00	137447.00
1064.00	137897.00
1065.00	138147.00
1066.00	138541.00
1067.00	138932.00
1068.00	139175.00
1069.00	139380.00
1070.00	139272.00
1071.00	139638.00
1072.00	139439.00
1073.00	139179.00
1074.00	138875.00
1075.00	139564.00
1076.00	139127.00
1077.00	139525.00
1078.00	140006.00
1079.00	139525.00
1080.00	139238.00
1081.00	139761.00
1082.00	140019.00
1083.00	140806.00
1084.00	140448.00
1085.00	140585.00
1086.00	140637.00
1087.00	141993.00
1088.00	142313.00
1089.00	142298.00
1090.00	142938.00
1091.00	143810.00
1092.00	145622.00
1093.00	145815.00
1094.00	147221.00
1095.00	147981.00
1096.00	147537.00
1097.00	149472.00
1098.00	148985.00
1099.00	150521.00
1100.00	150270.00
1101.00	150565.00
1102.00	150551.00
1103.00	150520.00
1104.00	150164.00
1105.00	150552.00
1106.00	149511.00
1107.00	148283.00
1108.00	148332.00
1109.00	148577.00
1110.00	147775.00
1111.00	147082.00
1112.00	146676.00
1113.00	146577.00
1114.00	145856.00
1115.00	146130.00
1116.00	145156.00
1117.00	145895.00
1118.00	145427.00
1119.00	145897.00
1120.00	146196.00
1121.00	145772.00
1122.00	146436.00
1123.00	146379.00
1124.00	146803.00
1125.00	147113.00
1126.00	148031.00
1127.00	146553.00
1128.00	147530.00
1129.00	147952.00
1130.00	148061.00
1131.00	148289.00
1132.00	148366.00
1133.00	147567.00
1134.00	147915.00
1135.00	147885.00
1136.00	148420.00
1137.00	148637.00
1138.00	149066.00
1139.00	148768.00
1140.00	148789.00
1141.00	149620.00
1142.00	150513.00
1143.00	149764.00
1144.00	150762.00
1145.00	151100.00
1146.00	152878.00
1147.00	153447.00
1148.00	155197.00
1149.00	156943.00
1150.00	158837.00
1151.00	161128.00
1152.00	163903.00
1153.00	166784.00
1154.00	169192.00
1155.00	172048.00
1156.00	173780.00
1157.00	177055.00
1158.00	177732.00
1159.00	180564.00
1160.00	182433.00
1161.00	182508.00
1162.00	183030.00
1163.00	182802.00
1164.00	181800.00
1165.00	180125.00
1166.00	178731.00
1167.00	176461.00
1168.00	173808.00
1169.00	170795.00
1170.00	168641.00
1171.00	165769.00
1172.00	163391.00
1173.00	160300.00
1174.00	157840.00
1175.00	156175.00
1176.00	154556.00
1177.00	152773.00
1178.00	151631.00
1179.00	150097.00
1180.00	150722.00
1181.00	149561.00
1182.00	149534.00
1183.00	149096.00
1184.00	148331.00
1185.00	147877.00
1186.00	148689.00
1187.00	148158.00
1188.00	147417.00
1189.00	146948.00
1190.00	148669.00
1191.00	148337.00
1192.00	148047.00
1193.00	148402.00
1194.00	149009.00
1195.00	149547.00
1196.00	148780.00
1197.00	149210.00
1198.00	149188.00
1199.00	149667.00
1200.00	150896.00
1201.00	151236.00
1202.00	150758.00
1203.00	151274.00
1204.00	150693.00
1205.00	151013.00
1206.00	151475.00
1207.00	151598.00
1208.00	151652.00
1209.00	151868.00
1210.00	152172.00
1211.00	152400.00
1212.00	151925.00
1213.00	152857.00
1214.00	153043.00
1215.00	153861.00
1216.00	153312.00
1217.00	154109.00
1218.00	154215.00
1219.00	154166.00
1220.00	153877.00
1221.00	155583.00
1222.00	155331.00
1223.00	155161.00
1224.00	156489.00
1225.00	156666.00
1226.00	156612.00
1227.00	156344.00
1228.00	157824.00
1229.00	157550.00
1230.00	157645.00
1231.00	157733.00
1232.00	157922.00
1233.00	157589.00
1234.00	157337.00
1235.00	158501.00
1236.00	159192.00
1237.00	158258.00
1238.00	158448.00
1239.00	158402.00
1240.00	158682.00
1241.00	158655.00
1242.00	158203.00
1243.00	158547.00
1244.00	159196.00
1245.00	159100.00
1246.00	158530.00
1247.00	159154.00
1248.00	159320.00
1249.00	158501.00
1250.00	158947.00
1251.00	159197.00
1252.00	159136.00
1253.00	159255.00
1254.00	158830.00
1255.00	159753.00
1256.00	159496.00
1257.00	159683.00
1258.00	159303.00
1259.00	159254.00
1260.00	159502.00
1261.00	158799.00
1262.00	158947.00
1263.00	159355.00
1264.00	159790.00
1265.00	159939.00
1266.00	160020.00
1267.00	159743.00
1268.00	159501.00
1269.00	159467.00
1270.00	160107.00
1271.00	160387.00
1272.00	159669.00
1273.00	158988.00
1274.00	159490.00
1275.00	160186.00
1276.00	159574.00
1277.00	160392.00
1278.00	160624.00
1279.00	161706.00
1280.00	160792.00
1281.00	162172.00
1282.00	162896.00
1283.00	163168.00
1284.00	163497.00
1285.00	164827.00
1286.00	165812.00
1287.00	167567.00
1288.00	168845.00
1289.00	169426.00
1290.00	172073.00
1291.00	173959.00
1292.00	176802.00
1293.00	178356.00
1294.00	181466.00
1295.00	182850.00
1296.00	185492.00
1297.00	188076.00
1298.00	190331.00
1299.00	192461.00
1300.00	192761.00
1301.00	194063.00
1302.00	196545.00
1303.00	196578.00
1304.00	196758.00
1305.00	196235.00
1306.00	196154.00
1307.00	194868.00
1308.00	193373.00
1309.00	191972.00
1310.00	189910.00
1311.00	187477.00
1312.00	185446.00
1313.00	183671.00
1314.00	180188.00
1315.00	177967.00
1316.00	177148.00
1317.00	173767.00
1318.00	173534.00
1319.00	171551.00
1320.00	170410.00
1321.00	168985.00
1322.00	168327.00
1323.00	167083.00
1324.00	165557.00
1325.00	166140.00
1326.00	165475.00
1327.00	164717.00
1328.00	165151.00
1329.00	165485.00
1330.00	164580.00
1331.00	164953.00
1332.00	164398.00
1333.00	164694.00
1334.00	164466.00
1335.00	165276.00
1336.00	164179.00
1337.00	165375.00
1338.00	165177.00
1339.00	165861.00
1340.00	164801.00
1341.00	165253.00
1342.00	165616.00
1343.00	165414.00
1344.00	165811.00
1345.00	165404.00
1346.00	165732.00
1347.00	166342.00
1348.00	166378.00
1349.00	167300.00
1350.00	168115.00
1351.00	167678.00
1352.00	168209.00
1353.00	169331.00
1354.00	169440.00
1355.00	171860.00
1356.00	174058.00
1357.00	178332.00
1358.00	180434.00
1359.00	185109.00
1360.00	190205.00
1361.00	195507.00
1362.00	203101.00
1363.00	212430.00
1364.00	222430.00
1365.00	234593.00
1366.00	247167.00
1367.00	261071.00
1368.00	277354.00
1369.00	292962.00
1370.00	308797.00
1371.00	327496.00
1372.00	343918.00
1373.00	359741.00
1374.00	375543.00
1375.00	387744.00
1376.00	400025.00
1377.00	409863.00
1378.00	414195.00
1379.00	418356.00
1380.00	419542.00
1381.00	416067.00
1382.00	409216.00
1383.00	400293.00
1384.00	387958.00
1385.00	373489.00
1386.00	356726.00
1387.00	339692.00
1388.00	322691.00
1389.00	303515.00
1390.00	286413.00
1391.00	269961.00
1392.00	252393.00
1393.00	238881.00
1394.00	225075.00
1395.00	213962.00
1396.00	203166.00
1397.00	193941.00
1398.00	186718.00
1399.00	181354.00
1400.00	175579.00
1401.00	172720.00
1402.00	169839.00
1403.00	167669.00
1404.00	165869.00
1405.00	164184.00
1406.00	162761.00
1407.00	162452.00
1408.00	162080.00
1409.00	160503.00
1410.00	161141.00
1411.00	160432.00
1412.00	160375.00
1413.00	160722.00
1414.00	160522.00
1415.00	160227.00
1416.00	159933.00
1417.00	160065.00
1418.00	159956.00
1419.00	159623.00
1420.00	159659.00
1421.00	159552.00
1422.00	159616.00
1423.00	160012.00
1424.00	159470.00
1425.00	160120.00
1426.00	159082.00
1427.00	159909.00
1428.00	160587.00
1429.00	160467.00
1430.00	159854.00
1431.00	160080.00
1432.00	160209.00
1433.00	160919.00
1434.00	160722.00
1435.00	160459.00
1436.00	160761.00
1437.00	161406.00
1438.00	160888.00
1439.00	161105.00
1440.00	161888.00
1441.00	162635.00
1442.00	163614.00
1443.00	163271.00
1444.00	163352.00
1445.00	164584.00
1446.00	165771.00
1447.00	166632.00
1448.00	167053.00
1449.00	168058.00
1450.00	169001.00
1451.00	168057.00
1452.00	170815.00
1453.00	170760.00
1454.00	171267.00
1455.00	172221.00
1456.00	172478.00
1457.00	173026.00
1458.00	172335.00
1459.00	172732.00
1460.00	172646.00
1461.00	172392.00
1462.00	172139.00
1463.00	171358.00
1464.00	170419.00
1465.00	171004.00
1466.00	169841.00
1467.00	169878.00
1468.00	168176.00
1469.00	167902.00
1470.00	166896.00
1471.00	166919.00
1472.00	166113.00
1473.00	166638.00
1474.00	165657.00
1475.00	165792.00
1476.00	164970.00
1477.00	165119.00
1478.00	164808.00
1479.00	165364.00
1480.00	164831.00
1481.00	165502.00
1482.00	165323.00
1483.00	164886.00
1484.00	164882.00
1485.00	165945.00
1486.00	165755.00
1487.00	166238.00
1488.00	166318.00
1489.00	166174.00
1490.00	167048.00
1491.00	166586.00
1492.00	167127.00
1493.00	166886.00
1494.00	167367.00
1495.00	168071.00
1496.00	167384.00
1497.00	168686.00
1498.00	168864.00
1499.00	169373.00
1500.00	169621.00
1501.00	168630.00
1502.00	169757.00
1503.00	169948.00
1504.00	171026.00
1505.00	171394.00
1506.00	170744.00
1507.00	171538.00
1508.00	172743.00
1509.00	172740.00
1510.00	173696.00
1511.00	175393.00
1512.00	175391.00
1513.00	175970.00
1514.00	177585.00
1515.00	179376.00
1516.00	180789.00
1517.00	182658.00
1518.00	184249.00
1519.00	186542.00
1520.00	188434.00
1521.00	190180.00
1522.00	194427.00
1523.00	197754.00
1524.00	201252.00
1525.00	203940.00
1526.00	209594.00
1527.00	212342.00
1528.00	217534.00
1529.00	221918.00
1530.00	227191.00
1531.00	231310.00
1532.00	235936.00
1533.00	240934.00
1534.00	245741.00
1535.00	250148.00
1536.00	254332.00
1537.00	257318.00
1538.00	261092.00
1539.00	263039.00
1540.00	264879.00
1541.00	266841.00
1542.00	266917.00
1543.00	266445.00
1544.00	266818.00
1545.00	265013.00
1546.00	263349.00
1547.00	260687.00
1548.00	258946.00
1549.00	256149.00
1550.00	252937.00
1551.00	250823.00
1552.00	247624.00
1553.00	246730.00
1554.00	244918.00
1555.00	243575.00
1556.00	243159.00
1557.00	242734.00
1558.00	243108.00
1559.00	244266.00
1560.00	246027.00
1561.00	248411.00
1562.00	250938.00
1563.00	254209.00
1564.00	258004.00
1565.00	261621.00
1566.00	267626.00
1567.00	271569.00
1568.00	276617.00
1569.00	282521.00
1570.00	289311.00
1571.00	295598.00
1572.00	302610.00
1573.00	309534.00
1574.00	316364.00
1575.00	325748.00
1576.00	335085.00
1577.00	341928.00
1578.00	352415.00
1579.00	361478.00
1580.00	371618.00
1581.00	383550.00
1582.00	392369.00
1583.00	403221.00
1584.00	416805.00
1585.00	426635.00
1586.00	438645.00
1587.00	450053.00
1588.00	462592.00
1589.00	473495.00
1590.00	486112.00
1591.00	498359.00
1592.00	509166.00
1593.00	519553.00
1594.00	530193.00
1595.00	541721.00
1596.00	549767.00
1597.00	558908.00
1598.00	567204.00
1599.00	577191.00
1600.00	583788.00
1601.00	587637.00
1602.00	594729.00
1603.00	600500.00
1604.00	603365.00
1605.00	604810.00
1606.00	607746.00
1607.00	609533.00
1608.00	609604.00
1609.00	606962.00
1610.00	606034.00
1611.00	603598.00
1612.00	599173.00
1613.00	594477.00
1614.00	588410.00
1615.00	583430.00
1616.00	576561.00
1617.00	567391.00
1618.00	559843.00
1619.00	551994.00
1620.00	541118.00
1621.00	531020.00
1622.00	520236.00
1623.00	510325.00
1624.00	498888.00
1625.00	487994.00
1626.00	476547.00
1627.00	464246.00
1628.00	452887.00
1629.00	440686.00
1630.00	429611.00
1631.00	416215.00
1632.00	406618.00
1633.00	392916.00
1634.00	382751.00
1635.00	371632.00
1636.00	360779.00
1637.00	349271.00
1638.00	340313.00
1639.00	329778.00
1640.00	320549.00
1641.00	311519.00
1642.00	302161.00
1643.00	293470.00
1644.00	284724.00
1645.00	277068.00
1646.00	270503.00
1647.00	262473.00
1648.00	255579.00
1649.00	250124.00
1650.00	242983.00
1651.00	236819.00
1652.00	231895.00
1653.00	226004.00
1654.00	222074.00
1655.00	216930.00
1656.00	212644.00
1657.00	208494.00
1658.00	204333.00
1659.00	200921.00
1660.00	197313.00
1661.00	194412.00
1662.00	191688.00
1663.00	188437.00
1664.00	185873.00
1665.00	183162.00
1666.00	181792.00
1667.00	179053.00
1668.00	178028.00
1669.00	176997.00
1670.00	175715.00
1671.00	176048.00
1672.00	175693.00
1673.00	176731.00
1674.00	177576.00
1675.00	180639.00
1676.00	182070.00
1677.00	186882.00
1678.00	190449.00
1679.00	196606.00
1680.00	202966.00
1681.00	211035.00
1682.00	220161.00
1683.00	230839.00
1684.00	243666.00
1685.00	256732.00
1686.00	270743.00
1687.00	285288.00
1688.00	302437.00
1689.00	319512.00
1690.00	336746.00
1691.00	354122.00
1692.00	372756.00
1693.00	388853.00
1694.00	405631.00
1695.00	420793.00
1696.00	434131.00
1697.00	447175.00
1698.00	457059.00
1699.00	465505.00
1700.00	470938.00
1701.00	472209.00
1702.00	471149.00
1703.00	469067.00
1704.00	461777.00
1705.00	451258.00
1706.00	439656.00
1707.00	425342.00
1708.00	410168.00
1709.00	391555.00
1710.00	371180.00
1711.00	351130.00
1712.00	330678.00
1713.00	310011.00
1714.00	291062.00
1715.00	271212.00
1716.00	253249.00
1717.00	236138.00
1718.00	221066.00
1719.00	206773.00
1720.00	195385.00
1721.00	183950.00
1722.00	174610.00
1723.00	167152.00
1724.00	160619.00
1725.00	155087.00
1726.00	150345.00
1727.00	146883.00
1728.00	143429.00
1729.00	141072.00
1730.00	138885.00
1731.00	137539.00
1732.00	136297.00
1733.00	134836.00
1734.00	134802.00
1735.00	134186.00
1736.00	133192.00
1737.00	133102.00
1738.00	132998.00
1739.00	132933.00
1740.00	132512.00
1741.00	132995.00
1742.00	133506.00
1743.00	134161.00
1744.00	133698.00
1745.00	133427.00
1746.00	134708.00
1747.00	133931.00
1748.00	135734.00
1749.00	135753.00
1750.00	135915.00
1751.00	137053.00
1752.00	137914.00
1753.00	138146.00
1754.00	139013.00
1755.00	140155.00
1756.00	140694.00
1757.00	142146.00
1758.00	143344.00
1759.00	144179.00
1760.00	144513.00
1761.00	145928.00
1762.00	147916.00
1763.00	148429.00
1764.00	150977.00
1765.00	151130.00
1766.00	153244.00
1767.00	154018.00
1768.00	155912.00
1769.00	157670.00
1770.00	158714.00
1771.00	160611.00
1772.00	162511.00
1773.00	163271.00
1774.00	164714.00
1775.00	166648.00
1776.00	168466.00
1777.00	170608.00
1778.00	171769.00
1779.00	173027.00
1780.00	174167.00
1781.00	176494.00
1782.00	177359.00
1783.00	178257.00
1784.00	179076.00
1785.00	179992.00
1786.00	180784.00
1787.00	181770.00
1788.00	182547.00
1789.00	182798.00
1790.00	183319.00
1791.00	182750.00
1792.00	183468.00
1793.00	183453.00
1794.00	182839.00
1795.00	183127.00
1796.00	182697.00
1797.00	181999.00
1798.00	181201.00
1799.00	180052.00
1800.00	179403.00
1801.00	178492.00
1802.00	177337.00
1803.00	176272.00
1804.00	175411.00
1805.00	174304.00
1806.00	171446.00
1807.00	170833.00
1808.00	168647.00
1809.00	166545.00
1810.00	164104.00
1811.00	162580.00
1812.00	160698.00
1813.00	158326.00
1814.00	155806.00
1815.00	153812.00
1816.00	152201.00
1817.00	149174.00
1818.00	147358.00
1819.00	144817.00
1820.00	142603.00
1821.00	140644.00
1822.00	137782.00
1823.00	136344.00
1824.00	133534.00
1825.00	131652.00
1826.00	129882.00
1827.00	127288.00
1828.00	125349.00
1829.00	123902.00
1830.00	121647.00
1831.00	119859.00
1832.00	117126.00
1833.00	115654.00
1834.00	113187.00
1835.00	111890.00
1836.00	110565.00
1837.00	108422.00
1838.00	107229.00
1839.00	105707.00
1840.00	103505.00
1841.00	102430.00
1842.00	101285.00
1843.00	98955.00
1844.00	98033.00
1845.00	96552.00
1846.00	95098.00
1847.00	93769.00
1848.00	92778.00
1849.00	91852.00
1850.00	90454.00
1851.00	89446.00
1852.00	87658.00
1853.00	86571.00
1854.00	85760.00
1855.00	84443.00
1856.00	84089.00
1857.00	82868.00
1858.00	82326.00
1859.00	80966.00
1860.00	79809.00
1861.00	79010.00
1862.00	78132.00
1863.00	77815.00
1864.00	76536.00
1865.00	76362.00
1866.00	74973.00
1867.00	74138.00
1868.00	74444.00
1869.00	73209.00
1870.00	73165.00
1871.00	72056.00
1872.00	71963.00
1873.00	71274.00
1874.00	70640.00
1875.00	70076.00
1876.00	69794.00
1877.00	69443.00
1878.00	69139.00
1879.00	68461.00
1880.00	68620.00
1881.00	68214.00
1882.00	68101.00
1883.00	67572.00
1884.00	67702.00
1885.00	67827.00
1886.00	67580.00
1887.00	67565.00
1888.00	67960.00
1889.00	68765.00
1890.00	69165.00
1891.00	69539.00
1892.00	69990.00
1893.00	71876.00
1894.00	72866.00
1895.00	74580.00
1896.00	76464.00
1897.00	78464.00
1898.00	80367.00
1899.00	83050.00
1900.00	85042.00
1901.00	88235.00
1902.00	90852.00
1903.00	93278.00
1904.00	95376.00
1905.00	97586.00
1906.00	100701.00
1907.00	101733.00
1908.00	103017.00
1909.00	104318.00
1910.00	104791.00
1911.00	105437.00
1912.00	104576.00
1913.00	103317.00
1914.00	102486.00
1915.00	100502.00
1916.00	98838.00
1917.00	96841.00
1918.00	94062.00
1919.00	90742.00
1920.00	88301.00
1921.00	85094.00
1922.00	81850.00
1923.00	79197.00
1924.00	77043.00
1925.00	73874.00
1926.00	71528.00
1927.00	69929.00
1928.00	67454.00
1929.00	65946.00
1930.00	64990.00
1931.00	63810.00
1932.00	62646.00
1933.00	62033.00
1934.00	61832.00
1935.00	61295.00
1936.00	61095.00
1937.00	61163.00
1938.00	61023.00
1939.00	60927.00
1940.00	60765.00
1941.00	60879.00
1942.00	60827.00
1943.00	60411.00
1944.00	60192.00
1945.00	60613.00
1946.00	59857.00
1947.00	59592.00
1948.00	59229.00
1949.00	58847.00
1950.00	58128.00
1951.00	57017.00
1952.00	56813.00
1953.00	55905.00
1954.00	55578.00
1955.00	54654.00
1956.00	54466.00
1957.00	52835.00
1958.00	52699.00
1959.00	51788.00
1960.00	51649.00
1961.00	51048.00
1962.00	50825.00
1963.00	50009.00
1964.00	49734.00
1965.00	49683.00
1966.00	49087.00
1967.00	48730.00
1968.00	48158.00
1969.00	48202.00
1970.00	48151.00
1971.00	47996.00
1972.00	48027.00
1973.00	47760.00
1974.00	47826.00
1975.00	47666.00
1976.00	47486.00
1977.00	47133.00
1978.00	47206.00
1979.00	47535.00
1980.00	47504.00
1981.00	46987.00
1982.00	47498.00
1983.00	47041.00
1984.00	46722.00
1985.00	47010.00
1986.00	47320.00
1987.00	47014.00
1988.00	46553.00
1989.00	46762.00
1990.00	47028.00
1991.00	46543.00
1992.00	46681.00
1993.00	46439.00
1994.00	46680.00
1995.00	46305.00
1996.00	46498.00
1997.00	46672.00
1998.00	46463.00
1999.00	46020.00
2000.00	46256.00
2001.00	45807.00
2002.00	46112.00
2003.00	45866.00
2004.00	46338.00
2005.00	45916.00
2006.00	45930.00
2007.00	46065.00
2008.00	45507.00
2009.00	45777.00
2010.00	45649.00
2011.00	45226.00
2012.00	45687.00
2013.00	45701.00
2014.00	45683.00
2015.00	45316.00
2016.00	45200.00
2017.00	45101.00
2018.00	45053.00
2019.00	45089.00
2020.00	45433.00
2021.00	45229.00
2022.00	44838.00
2023.00	44437.00
2024.00	44606.00
2025.00	44457.00
2026.00	44618.00
2027.00	44229.00
2028.00	44752.00
2029.00	43969.00
2030.00	44307.00
2031.00	44212.00
2032.00	44267.00
2033.00	44526.00
2034.00	44175.00
2035.00	44058.00
2036.00	43980.00
2037.00	43944.00
2038.00	43670.00
2039.00	44119.00
2040.00	44285.00
2041.00	43537.00
2042.00	43460.00
2043.00	43808.00
2044.00	43821.00
2045.00	43321.00
2046.00	43366.00
2047.00	43497.00
2048.00	 0.00
