Date:	08/02/2022		
Time:	18:32		
Sample name:	JC36_74_2		
Position:	196.000018	mm	
Sample surface:	7.253849	cm	
Tube anode:	Mo		
Tube voltage:	30	kV	
Tube current:	30	mA	
Comments	not in position		
Gain	2.150000		
peaking_time	0.300000	m-sec	
trigger_threshold	40.000000	V	
mca_bin_width	2.000000	no:	
number_mca_channels	2048.000000	no:	
gap_time	0.100000	m-sec	
trigger_peaking_time	0.050000	m-sec	
livetime	12.557741	seconds	
runtime	15.000117	seconds	
input_count_rate	79430.371004	cps	
output_count_rate	66497.214655	cps	
triggers	1152920.000000	seconds	
events_in_run	959170.000000	seconds	
channel	content		
 1.00	 0.00
 2.00	 0.00
 3.00	 0.00
 4.00	 0.00
 5.00	 0.00
 6.00	 0.00
 7.00	 0.00
 8.00	 0.00
 9.00	 0.00
10.00	 0.00
11.00	 0.00
12.00	 0.00
13.00	 0.00
14.00	 0.00
15.00	 0.00
16.00	 0.00
17.00	 0.00
18.00	 0.00
19.00	 0.00
20.00	 0.00
21.00	 0.00
22.00	 0.00
23.00	 0.00
24.00	 0.00
25.00	 0.00
26.00	 0.00
27.00	 0.00
28.00	 0.00
29.00	 0.00
30.00	 0.00
31.00	36.00
32.00	43.00
33.00	33.00
34.00	50.00
35.00	27.00
36.00	36.00
37.00	45.00
38.00	45.00
39.00	43.00
40.00	40.00
41.00	36.00
42.00	38.00
43.00	38.00
44.00	50.00
45.00	43.00
46.00	45.00
47.00	53.00
48.00	50.00
49.00	85.00
50.00	96.00
51.00	171.00
52.00	217.00
53.00	296.00
54.00	365.00
55.00	542.00
56.00	712.00
57.00	943.00
58.00	1380.00
59.00	1933.00
60.00	2455.00
61.00	2845.00
62.00	3000.00
63.00	3146.00
64.00	3116.00
65.00	3112.00
66.00	2989.00
67.00	2962.00
68.00	2803.00
69.00	2788.00
70.00	2743.00
71.00	2714.00
72.00	2750.00
73.00	2604.00
74.00	2663.00
75.00	2631.00
76.00	2575.00
77.00	2600.00
78.00	2579.00
79.00	2577.00
80.00	2622.00
81.00	2628.00
82.00	2628.00
83.00	2643.00
84.00	2690.00
85.00	2646.00
86.00	2666.00
87.00	2612.00
88.00	2549.00
89.00	2606.00
90.00	2451.00
91.00	2488.00
92.00	2377.00
93.00	2309.00
94.00	2324.00
95.00	2271.00
96.00	2145.00
97.00	2120.00
98.00	2225.00
99.00	2179.00
100.00	2051.00
101.00	2098.00
102.00	2163.00
103.00	2146.00
104.00	2044.00
105.00	2098.00
106.00	2017.00
107.00	1927.00
108.00	1909.00
109.00	1894.00
110.00	1897.00
111.00	1843.00
112.00	1875.00
113.00	1814.00
114.00	1795.00
115.00	1827.00
116.00	1836.00
117.00	1829.00
118.00	1815.00
119.00	1734.00
120.00	1821.00
121.00	1699.00
122.00	1688.00
123.00	1664.00
124.00	1685.00
125.00	1635.00
126.00	1513.00
127.00	1527.00
128.00	1555.00
129.00	1489.00
130.00	1516.00
131.00	1426.00
132.00	1500.00
133.00	1396.00
134.00	1481.00
135.00	1456.00
136.00	1370.00
137.00	1421.00
138.00	1502.00
139.00	1468.00
140.00	1556.00
141.00	1693.00
142.00	1813.00
143.00	1820.00
144.00	1865.00
145.00	1983.00
146.00	1999.00
147.00	1958.00
148.00	1928.00
149.00	1836.00
150.00	1778.00
151.00	1684.00
152.00	1664.00
153.00	1649.00
154.00	1611.00
155.00	1552.00
156.00	1552.00
157.00	1395.00
158.00	1362.00
159.00	1381.00
160.00	1422.00
161.00	1483.00
162.00	1762.00
163.00	2312.00
164.00	3067.00
165.00	4221.00
166.00	5640.00
167.00	7428.00
168.00	9013.00
169.00	10295.00
170.00	11312.00
171.00	11385.00
172.00	11046.00
173.00	9370.00
174.00	7982.00
175.00	6424.00
176.00	4944.00
177.00	3939.00
178.00	3067.00
179.00	2664.00
180.00	2361.00
181.00	2277.00
182.00	2278.00
183.00	2542.00
184.00	2928.00
185.00	3273.00
186.00	3939.00
187.00	4937.00
188.00	5825.00
189.00	6467.00
190.00	7161.00
191.00	7163.00
192.00	7044.00
193.00	6462.00
194.00	5621.00
195.00	4615.00
196.00	3651.00
197.00	2746.00
198.00	2166.00
199.00	1690.00
200.00	1460.00
201.00	1270.00
202.00	1155.00
203.00	992.00
204.00	1026.00
205.00	945.00
206.00	972.00
207.00	990.00
208.00	983.00
209.00	1056.00
210.00	1001.00
211.00	969.00
212.00	1005.00
213.00	1042.00
214.00	1082.00
215.00	1189.00
216.00	1224.00
217.00	1326.00
218.00	1429.00
219.00	1642.00
220.00	1796.00
221.00	1950.00
222.00	2056.00
223.00	2141.00
224.00	2130.00
225.00	2196.00
226.00	2007.00
227.00	1949.00
228.00	1810.00
229.00	1547.00
230.00	1415.00
231.00	1295.00
232.00	1135.00
233.00	990.00
234.00	979.00
235.00	873.00
236.00	880.00
237.00	862.00
238.00	845.00
239.00	843.00
240.00	894.00
241.00	829.00
242.00	887.00
243.00	885.00
244.00	1014.00
245.00	1190.00
246.00	1380.00
247.00	1714.00
248.00	2274.00
249.00	3170.00
250.00	4140.00
251.00	5886.00
252.00	7736.00
253.00	9907.00
254.00	11913.00
255.00	13655.00
256.00	14743.00
257.00	14971.00
258.00	14567.00
259.00	13629.00
260.00	11804.00
261.00	9817.00
262.00	7592.00
263.00	5725.00
264.00	4254.00
265.00	3031.00
266.00	2331.00
267.00	1865.00
268.00	1571.00
269.00	1609.00
270.00	1640.00
271.00	1771.00
272.00	1903.00
273.00	2147.00
274.00	2215.00
275.00	2358.00
276.00	2338.00
277.00	2377.00
278.00	2300.00
279.00	2285.00
280.00	2209.00
281.00	2228.00
282.00	2403.00
283.00	2732.00
284.00	3157.00
285.00	3696.00
286.00	4492.00
287.00	4959.00
288.00	5416.00
289.00	5908.00
290.00	5991.00
291.00	5909.00
292.00	5350.00
293.00	4614.00
294.00	4005.00
295.00	3284.00
296.00	2629.00
297.00	2089.00
298.00	1681.00
299.00	1328.00
300.00	1187.00
301.00	1064.00
302.00	985.00
303.00	973.00
304.00	1060.00
305.00	1085.00
306.00	1158.00
307.00	1275.00
308.00	1368.00
309.00	1461.00
310.00	1726.00
311.00	1984.00
312.00	2409.00
313.00	2706.00
314.00	3372.00
315.00	4367.00
316.00	5999.00
317.00	7922.00
318.00	10463.00
319.00	13502.00
320.00	17378.00
321.00	20773.00
322.00	23894.00
323.00	26507.00
324.00	27744.00
325.00	27623.00
326.00	26627.00
327.00	24062.00
328.00	20549.00
329.00	17120.00
330.00	13371.00
331.00	10113.00
332.00	7197.00
333.00	5238.00
334.00	3690.00
335.00	2756.00
336.00	2042.00
337.00	1724.00
338.00	1534.00
339.00	1605.00
340.00	1748.00
341.00	2060.00
342.00	2553.00
343.00	3182.00
344.00	4219.00
345.00	5528.00
346.00	7654.00
347.00	10732.00
348.00	15893.00
349.00	23678.00
350.00	35976.00
351.00	54012.00
352.00	79906.00
353.00	115502.00
354.00	162113.00
355.00	218121.00
356.00	283687.00
357.00	353882.00
358.00	420646.00
359.00	477394.00
360.00	520208.00
361.00	539681.00
362.00	535051.00
363.00	505053.00
364.00	456306.00
365.00	392139.00
366.00	322426.00
367.00	252885.00
368.00	189265.00
369.00	136217.00
370.00	93314.00
371.00	61866.00
372.00	39035.00
373.00	24379.00
374.00	15039.00
375.00	9572.00
376.00	6647.00
377.00	5218.00
378.00	4937.00
379.00	5324.00
380.00	6212.00
381.00	8048.00
382.00	10491.00
383.00	14105.00
384.00	19178.00
385.00	25442.00
386.00	32944.00
387.00	42002.00
388.00	51514.00
389.00	61524.00
390.00	69862.00
391.00	76450.00
392.00	80189.00
393.00	81355.00
394.00	78345.00
395.00	73196.00
396.00	64864.00
397.00	54866.00
398.00	44962.00
399.00	35266.00
400.00	26336.00
401.00	19485.00
402.00	13610.00
403.00	9023.00
404.00	6061.00
405.00	3902.00
406.00	2486.00
407.00	1714.00
408.00	1260.00
409.00	953.00
410.00	779.00
411.00	715.00
412.00	694.00
413.00	672.00
414.00	694.00
415.00	665.00
416.00	644.00
417.00	667.00
418.00	685.00
419.00	732.00
420.00	674.00
421.00	701.00
422.00	731.00
423.00	742.00
424.00	825.00
425.00	844.00
426.00	961.00
427.00	1082.00
428.00	1354.00
429.00	1706.00
430.00	2159.00
431.00	2921.00
432.00	3746.00
433.00	5002.00
434.00	6257.00
435.00	7827.00
436.00	9394.00
437.00	11146.00
438.00	12616.00
439.00	13890.00
440.00	14368.00
441.00	14646.00
442.00	14413.00
443.00	13544.00
444.00	12453.00
445.00	11115.00
446.00	9346.00
447.00	7643.00
448.00	6417.00
449.00	5255.00
450.00	4357.00
451.00	3593.00
452.00	3101.00
453.00	2822.00
454.00	2539.00
455.00	2556.00
456.00	2325.00
457.00	2146.00
458.00	2041.00
459.00	1930.00
460.00	1752.00
461.00	1586.00
462.00	1582.00
463.00	1428.00
464.00	1477.00
465.00	1431.00
466.00	1496.00
467.00	1520.00
468.00	1628.00
469.00	1777.00
470.00	1891.00
471.00	2090.00
472.00	2163.00
473.00	2486.00
474.00	2584.00
475.00	2878.00
476.00	3086.00
477.00	3330.00
478.00	3554.00
479.00	3812.00
480.00	3975.00
481.00	4110.00
482.00	4127.00
483.00	4097.00
484.00	3895.00
485.00	3754.00
486.00	3396.00
487.00	3102.00
488.00	2802.00
489.00	2491.00
490.00	2148.00
491.00	1939.00
492.00	1733.00
493.00	1537.00
494.00	1470.00
495.00	1414.00
496.00	1293.00
497.00	1271.00
498.00	1347.00
499.00	1394.00
500.00	1324.00
501.00	1412.00
502.00	1471.00
503.00	1491.00
504.00	1516.00
505.00	1584.00
506.00	1528.00
507.00	1665.00
508.00	1868.00
509.00	1846.00
510.00	1878.00
511.00	1980.00
512.00	2041.00
513.00	2111.00
514.00	2185.00
515.00	2194.00
516.00	2433.00
517.00	2444.00
518.00	2604.00
519.00	2799.00
520.00	3092.00
521.00	3241.00
522.00	3439.00
523.00	3769.00
524.00	3972.00
525.00	4244.00
526.00	4638.00
527.00	4769.00
528.00	4845.00
529.00	4889.00
530.00	4757.00
531.00	4633.00
532.00	4307.00
533.00	4090.00
534.00	3882.00
535.00	3462.00
536.00	3226.00
537.00	3062.00
538.00	2853.00
539.00	2680.00
540.00	2576.00
541.00	2504.00
542.00	2346.00
543.00	2427.00
544.00	2393.00
545.00	2550.00
546.00	2602.00
547.00	2557.00
548.00	2558.00
549.00	2662.00
550.00	2612.00
551.00	2697.00
552.00	2773.00
553.00	2756.00
554.00	2803.00
555.00	2782.00
556.00	2771.00
557.00	2947.00
558.00	2878.00
559.00	2980.00
560.00	2988.00
561.00	3068.00
562.00	3098.00
563.00	3151.00
564.00	3409.00
565.00	3607.00
566.00	3665.00
567.00	4001.00
568.00	4521.00
569.00	4984.00
570.00	5446.00
571.00	5902.00
572.00	6336.00
573.00	6833.00
574.00	6948.00
575.00	7249.00
576.00	7460.00
577.00	7471.00
578.00	7184.00
579.00	6718.00
580.00	6425.00
581.00	5952.00
582.00	5429.00
583.00	4966.00
584.00	4525.00
585.00	3921.00
586.00	3606.00
587.00	3294.00
588.00	3156.00
589.00	3007.00
590.00	2799.00
591.00	2852.00
592.00	2781.00
593.00	2780.00
594.00	2827.00
595.00	2968.00
596.00	3013.00
597.00	3053.00
598.00	3159.00
599.00	3380.00
600.00	3561.00
601.00	3667.00
602.00	3962.00
603.00	4180.00
604.00	4590.00
605.00	5109.00
606.00	5725.00
607.00	7322.00
608.00	9333.00
609.00	12222.00
610.00	16446.00
611.00	22808.00
612.00	32116.00
613.00	43692.00
614.00	60282.00
615.00	79789.00
616.00	105194.00
617.00	135262.00
618.00	168735.00
619.00	205492.00
620.00	242731.00
621.00	278040.00
622.00	310389.00
623.00	336380.00
624.00	353878.00
625.00	362641.00
626.00	358946.00
627.00	344687.00
628.00	321262.00
629.00	291368.00
630.00	257157.00
631.00	220074.00
632.00	183448.00
633.00	147705.00
634.00	116752.00
635.00	88663.00
636.00	67059.00
637.00	49037.00
638.00	35615.00
639.00	25633.00
640.00	18537.00
641.00	13690.00
642.00	10363.00
643.00	8008.00
644.00	6756.00
645.00	6006.00
646.00	5491.00
647.00	5142.00
648.00	5042.00
649.00	4892.00
650.00	4897.00
651.00	4688.00
652.00	4770.00
653.00	4914.00
654.00	4850.00
655.00	5024.00
656.00	5095.00
657.00	5003.00
658.00	5144.00
659.00	5227.00
660.00	5159.00
661.00	5399.00
662.00	5531.00
663.00	5503.00
664.00	5647.00
665.00	6031.00
666.00	5836.00
667.00	6280.00
668.00	6246.00
669.00	6684.00
670.00	7040.00
671.00	7414.00
672.00	8097.00
673.00	8752.00
674.00	9836.00
675.00	11111.00
676.00	12790.00
677.00	15090.00
678.00	17974.00
679.00	21323.00
680.00	25467.00
681.00	30197.00
682.00	35391.00
683.00	40801.00
684.00	46231.00
685.00	51082.00
686.00	55009.00
687.00	59132.00
688.00	61218.00
689.00	62163.00
690.00	61063.00
691.00	59089.00
692.00	55395.00
693.00	51295.00
694.00	45785.00
695.00	40052.00
696.00	34735.00
697.00	29604.00
698.00	24595.00
699.00	20199.00
700.00	16671.00
701.00	13608.00
702.00	11362.00
703.00	9401.00
704.00	8487.00
705.00	7522.00
706.00	6992.00
707.00	6605.00
708.00	6337.00
709.00	6231.00
710.00	6202.00
711.00	6507.00
712.00	6344.00
713.00	6509.00
714.00	6643.00
715.00	6842.00
716.00	6931.00
717.00	7046.00
718.00	7241.00
719.00	7591.00
720.00	7650.00
721.00	8068.00
722.00	8284.00
723.00	8478.00
724.00	8753.00
725.00	8748.00
726.00	9056.00
727.00	9126.00
728.00	9133.00
729.00	9097.00
730.00	8977.00
731.00	9220.00
732.00	8901.00
733.00	8677.00
734.00	8424.00
735.00	8168.00
736.00	7946.00
737.00	7744.00
738.00	7376.00
739.00	7308.00
740.00	7140.00
741.00	6948.00
742.00	6861.00
743.00	6788.00
744.00	6770.00
745.00	6672.00
746.00	6634.00
747.00	6737.00
748.00	6437.00
749.00	6461.00
750.00	6478.00
751.00	6390.00
752.00	6528.00
753.00	6559.00
754.00	6631.00
755.00	6659.00
756.00	6615.00
757.00	6582.00
758.00	6677.00
759.00	6726.00
760.00	6700.00
761.00	6719.00
762.00	6816.00
763.00	6961.00
764.00	6853.00
765.00	7019.00
766.00	7062.00
767.00	7215.00
768.00	7343.00
769.00	7339.00
770.00	7468.00
771.00	7585.00
772.00	7941.00
773.00	8177.00
774.00	8232.00
775.00	8456.00
776.00	8776.00
777.00	9025.00
778.00	9460.00
779.00	9760.00
780.00	9731.00
781.00	10414.00
782.00	10735.00
783.00	11068.00
784.00	11411.00
785.00	11547.00
786.00	12056.00
787.00	12217.00
788.00	12574.00
789.00	12628.00
790.00	12841.00
791.00	13341.00
792.00	13611.00
793.00	13511.00
794.00	13714.00
795.00	13720.00
796.00	14003.00
797.00	13963.00
798.00	14223.00
799.00	14217.00
800.00	14692.00
801.00	14630.00
802.00	14616.00
803.00	14899.00
804.00	15365.00
805.00	15498.00
806.00	15852.00
807.00	16264.00
808.00	17025.00
809.00	17739.00
810.00	18879.00
811.00	19667.00
812.00	20834.00
813.00	21790.00
814.00	22867.00
815.00	23828.00
816.00	24735.00
817.00	25672.00
818.00	25565.00
819.00	26088.00
820.00	26109.00
821.00	25752.00
822.00	24833.00
823.00	24190.00
824.00	22817.00
825.00	21476.00
826.00	20359.00
827.00	18813.00
828.00	17728.00
829.00	16433.00
830.00	15550.00
831.00	14703.00
832.00	13658.00
833.00	13442.00
834.00	12968.00
835.00	13066.00
836.00	12724.00
837.00	12491.00
838.00	12479.00
839.00	12763.00
840.00	12859.00
841.00	12699.00
842.00	12941.00
843.00	13005.00
844.00	13022.00
845.00	12740.00
846.00	12766.00
847.00	12628.00
848.00	12717.00
849.00	12628.00
850.00	12362.00
851.00	12296.00
852.00	12152.00
853.00	12183.00
854.00	12094.00
855.00	11905.00
856.00	12032.00
857.00	12038.00
858.00	11935.00
859.00	11960.00
860.00	11959.00
861.00	11880.00
862.00	11783.00
863.00	12042.00
864.00	12101.00
865.00	11845.00
866.00	12008.00
867.00	12188.00
868.00	12162.00
869.00	12097.00
870.00	12128.00
871.00	12157.00
872.00	12113.00
873.00	11990.00
874.00	12171.00
875.00	12211.00
876.00	12154.00
877.00	12355.00
878.00	12243.00
879.00	12457.00
880.00	12403.00
881.00	12821.00
882.00	12856.00
883.00	12734.00
884.00	12855.00
885.00	12832.00
886.00	13172.00
887.00	13322.00
888.00	13447.00
889.00	13678.00
890.00	13826.00
891.00	13946.00
892.00	14044.00
893.00	14415.00
894.00	14489.00
895.00	14601.00
896.00	15063.00
897.00	14844.00
898.00	14918.00
899.00	15438.00
900.00	15724.00
901.00	15946.00
902.00	16346.00
903.00	16154.00
904.00	16491.00
905.00	16478.00
906.00	16828.00
907.00	16887.00
908.00	17013.00
909.00	17355.00
910.00	17405.00
911.00	17367.00
912.00	17734.00
913.00	17669.00
914.00	17706.00
915.00	17580.00
916.00	17847.00
917.00	17926.00
918.00	18133.00
919.00	18069.00
920.00	18310.00
921.00	18466.00
922.00	18341.00
923.00	18472.00
924.00	18643.00
925.00	19115.00
926.00	19077.00
927.00	19122.00
928.00	19539.00
929.00	19773.00
930.00	19666.00
931.00	20381.00
932.00	20466.00
933.00	20938.00
934.00	21266.00
935.00	21509.00
936.00	22167.00
937.00	22691.00
938.00	22949.00
939.00	23778.00
940.00	23992.00
941.00	24497.00
942.00	24535.00
943.00	24464.00
944.00	24408.00
945.00	24447.00
946.00	24034.00
947.00	23965.00
948.00	23201.00
949.00	22842.00
950.00	21945.00
951.00	21675.00
952.00	20985.00
953.00	20503.00
954.00	19897.00
955.00	19588.00
956.00	18865.00
957.00	18885.00
958.00	18470.00
959.00	18558.00
960.00	18270.00
961.00	18452.00
962.00	18475.00
963.00	18096.00
964.00	18333.00
965.00	18546.00
966.00	18379.00
967.00	18828.00
968.00	18722.00
969.00	18839.00
970.00	18973.00
971.00	18931.00
972.00	18677.00
973.00	18873.00
974.00	18780.00
975.00	18548.00
976.00	18369.00
977.00	17901.00
978.00	18192.00
979.00	17530.00
980.00	17521.00
981.00	17508.00
982.00	17284.00
983.00	17035.00
984.00	16821.00
985.00	16736.00
986.00	16439.00
987.00	16233.00
988.00	16326.00
989.00	16148.00
990.00	16475.00
991.00	16307.00
992.00	16160.00
993.00	16303.00
994.00	16176.00
995.00	16110.00
996.00	16061.00
997.00	15761.00
998.00	15922.00
999.00	15797.00
1000.00	15919.00
1001.00	15990.00
1002.00	15927.00
1003.00	15647.00
1004.00	15750.00
1005.00	15818.00
1006.00	16016.00
1007.00	15955.00
1008.00	15803.00
1009.00	15930.00
1010.00	15865.00
1011.00	15668.00
1012.00	16000.00
1013.00	15825.00
1014.00	16091.00
1015.00	15838.00
1016.00	16194.00
1017.00	15991.00
1018.00	16231.00
1019.00	16287.00
1020.00	16325.00
1021.00	16181.00
1022.00	16655.00
1023.00	16448.00
1024.00	16530.00
1025.00	16567.00
1026.00	16788.00
1027.00	16589.00
1028.00	16482.00
1029.00	16970.00
1030.00	16666.00
1031.00	16719.00
1032.00	16705.00
1033.00	16588.00
1034.00	16817.00
1035.00	16898.00
1036.00	16795.00
1037.00	16577.00
1038.00	16449.00
1039.00	16705.00
1040.00	16715.00
1041.00	16986.00
1042.00	16425.00
1043.00	16701.00
1044.00	16901.00
1045.00	16927.00
1046.00	17113.00
1047.00	16916.00
1048.00	16892.00
1049.00	17271.00
1050.00	17368.00
1051.00	17340.00
1052.00	17267.00
1053.00	17487.00
1054.00	17519.00
1055.00	17490.00
1056.00	17465.00
1057.00	17702.00
1058.00	17687.00
1059.00	17561.00
1060.00	17772.00
1061.00	17471.00
1062.00	18047.00
1063.00	17753.00
1064.00	17914.00
1065.00	17914.00
1066.00	18118.00
1067.00	18093.00
1068.00	18099.00
1069.00	17993.00
1070.00	18280.00
1071.00	18140.00
1072.00	17956.00
1073.00	18047.00
1074.00	18140.00
1075.00	18193.00
1076.00	18141.00
1077.00	18004.00
1078.00	18169.00
1079.00	18157.00
1080.00	18230.00
1081.00	18212.00
1082.00	17897.00
1083.00	18219.00
1084.00	18155.00
1085.00	18415.00
1086.00	18454.00
1087.00	18551.00
1088.00	18471.00
1089.00	18676.00
1090.00	18601.00
1091.00	19049.00
1092.00	19225.00
1093.00	18974.00
1094.00	19307.00
1095.00	19162.00
1096.00	19435.00
1097.00	19631.00
1098.00	19656.00
1099.00	19444.00
1100.00	19533.00
1101.00	19502.00
1102.00	19653.00
1103.00	19710.00
1104.00	19541.00
1105.00	19594.00
1106.00	19446.00
1107.00	19333.00
1108.00	19222.00
1109.00	19500.00
1110.00	19406.00
1111.00	19115.00
1112.00	19316.00
1113.00	18961.00
1114.00	19070.00
1115.00	19024.00
1116.00	19352.00
1117.00	19068.00
1118.00	19146.00
1119.00	19120.00
1120.00	19030.00
1121.00	19075.00
1122.00	18966.00
1123.00	18957.00
1124.00	19128.00
1125.00	19208.00
1126.00	19080.00
1127.00	19245.00
1128.00	19162.00
1129.00	19199.00
1130.00	19072.00
1131.00	19150.00
1132.00	19278.00
1133.00	19346.00
1134.00	18987.00
1135.00	19300.00
1136.00	19111.00
1137.00	19378.00
1138.00	19261.00
1139.00	19095.00
1140.00	19480.00
1141.00	19580.00
1142.00	19433.00
1143.00	19395.00
1144.00	19524.00
1145.00	19455.00
1146.00	19735.00
1147.00	19894.00
1148.00	19954.00
1149.00	20453.00
1150.00	20422.00
1151.00	20530.00
1152.00	20945.00
1153.00	21227.00
1154.00	21499.00
1155.00	21904.00
1156.00	22098.00
1157.00	22094.00
1158.00	22344.00
1159.00	22630.00
1160.00	22875.00
1161.00	23030.00
1162.00	22912.00
1163.00	23042.00
1164.00	22737.00
1165.00	22408.00
1166.00	22472.00
1167.00	22280.00
1168.00	22097.00
1169.00	21721.00
1170.00	21652.00
1171.00	21339.00
1172.00	20752.00
1173.00	20614.00
1174.00	20116.00
1175.00	20151.00
1176.00	19635.00
1177.00	19725.00
1178.00	19482.00
1179.00	19588.00
1180.00	19173.00
1181.00	19351.00
1182.00	19317.00
1183.00	19303.00
1184.00	19136.00
1185.00	19461.00
1186.00	19521.00
1187.00	19363.00
1188.00	19362.00
1189.00	19260.00
1190.00	19194.00
1191.00	19185.00
1192.00	19295.00
1193.00	19366.00
1194.00	19251.00
1195.00	19356.00
1196.00	19529.00
1197.00	19421.00
1198.00	19389.00
1199.00	19255.00
1200.00	19430.00
1201.00	19787.00
1202.00	19681.00
1203.00	19562.00
1204.00	19770.00
1205.00	19845.00
1206.00	19446.00
1207.00	19729.00
1208.00	19692.00
1209.00	20070.00
1210.00	19652.00
1211.00	20106.00
1212.00	19756.00
1213.00	19885.00
1214.00	19881.00
1215.00	20171.00
1216.00	19858.00
1217.00	20200.00
1218.00	20146.00
1219.00	20163.00
1220.00	19990.00
1221.00	20149.00
1222.00	20133.00
1223.00	20277.00
1224.00	20397.00
1225.00	20493.00
1226.00	20445.00
1227.00	20363.00
1228.00	20533.00
1229.00	20548.00
1230.00	20483.00
1231.00	20375.00
1232.00	20520.00
1233.00	20497.00
1234.00	20518.00
1235.00	20513.00
1236.00	20572.00
1237.00	20473.00
1238.00	20189.00
1239.00	20659.00
1240.00	20679.00
1241.00	20607.00
1242.00	20479.00
1243.00	20651.00
1244.00	20669.00
1245.00	20455.00
1246.00	20707.00
1247.00	20804.00
1248.00	20564.00
1249.00	20625.00
1250.00	20639.00
1251.00	20449.00
1252.00	20685.00
1253.00	20810.00
1254.00	20794.00
1255.00	20732.00
1256.00	20611.00
1257.00	20609.00
1258.00	20771.00
1259.00	20605.00
1260.00	20748.00
1261.00	20820.00
1262.00	20704.00
1263.00	20945.00
1264.00	20895.00
1265.00	20993.00
1266.00	20789.00
1267.00	20820.00
1268.00	20689.00
1269.00	20584.00
1270.00	20766.00
1271.00	20656.00
1272.00	20910.00
1273.00	20920.00
1274.00	20991.00
1275.00	20972.00
1276.00	20703.00
1277.00	21035.00
1278.00	20890.00
1279.00	20950.00
1280.00	21060.00
1281.00	20846.00
1282.00	21179.00
1283.00	21340.00
1284.00	21388.00
1285.00	21443.00
1286.00	21828.00
1287.00	21852.00
1288.00	22012.00
1289.00	21935.00
1290.00	22529.00
1291.00	22589.00
1292.00	22964.00
1293.00	23165.00
1294.00	23143.00
1295.00	23643.00
1296.00	24053.00
1297.00	24457.00
1298.00	24560.00
1299.00	24851.00
1300.00	25160.00
1301.00	25351.00
1302.00	25466.00
1303.00	25544.00
1304.00	25551.00
1305.00	25550.00
1306.00	25500.00
1307.00	25718.00
1308.00	25291.00
1309.00	25011.00
1310.00	24556.00
1311.00	24467.00
1312.00	24285.00
1313.00	23983.00
1314.00	23419.00
1315.00	23087.00
1316.00	22952.00
1317.00	22594.00
1318.00	22740.00
1319.00	22080.00
1320.00	22087.00
1321.00	21974.00
1322.00	21808.00
1323.00	22149.00
1324.00	21636.00
1325.00	21598.00
1326.00	21639.00
1327.00	21556.00
1328.00	21747.00
1329.00	21784.00
1330.00	21736.00
1331.00	21455.00
1332.00	21596.00
1333.00	21421.00
1334.00	21377.00
1335.00	21562.00
1336.00	21546.00
1337.00	21660.00
1338.00	21295.00
1339.00	21696.00
1340.00	21571.00
1341.00	21666.00
1342.00	21463.00
1343.00	21572.00
1344.00	21782.00
1345.00	21785.00
1346.00	21761.00
1347.00	21557.00
1348.00	21766.00
1349.00	21731.00
1350.00	21819.00
1351.00	21890.00
1352.00	22203.00
1353.00	22261.00
1354.00	22448.00
1355.00	22553.00
1356.00	22724.00
1357.00	23329.00
1358.00	23243.00
1359.00	24458.00
1360.00	24707.00
1361.00	25509.00
1362.00	26598.00
1363.00	28084.00
1364.00	29155.00
1365.00	30475.00
1366.00	32391.00
1367.00	34270.00
1368.00	36268.00
1369.00	38714.00
1370.00	40746.00
1371.00	43222.00
1372.00	45490.00
1373.00	47289.00
1374.00	49426.00
1375.00	51104.00
1376.00	52800.00
1377.00	54192.00
1378.00	54577.00
1379.00	55450.00
1380.00	55517.00
1381.00	54721.00
1382.00	54186.00
1383.00	52628.00
1384.00	51243.00
1385.00	48719.00
1386.00	47151.00
1387.00	44739.00
1388.00	42392.00
1389.00	39531.00
1390.00	37625.00
1391.00	35347.00
1392.00	32873.00
1393.00	31466.00
1394.00	29426.00
1395.00	27911.00
1396.00	26153.00
1397.00	25455.00
1398.00	24557.00
1399.00	23750.00
1400.00	23041.00
1401.00	22621.00
1402.00	22028.00
1403.00	21726.00
1404.00	21527.00
1405.00	21495.00
1406.00	21496.00
1407.00	20991.00
1408.00	21059.00
1409.00	21063.00
1410.00	20921.00
1411.00	20653.00
1412.00	21147.00
1413.00	20993.00
1414.00	20915.00
1415.00	20933.00
1416.00	20886.00
1417.00	20421.00
1418.00	20914.00
1419.00	20696.00
1420.00	20761.00
1421.00	21141.00
1422.00	20788.00
1423.00	20891.00
1424.00	20469.00
1425.00	21000.00
1426.00	20968.00
1427.00	21055.00
1428.00	20581.00
1429.00	20945.00
1430.00	20812.00
1431.00	20670.00
1432.00	20953.00
1433.00	20756.00
1434.00	20947.00
1435.00	20797.00
1436.00	20673.00
1437.00	21086.00
1438.00	20934.00
1439.00	21006.00
1440.00	21126.00
1441.00	21179.00
1442.00	21401.00
1443.00	21545.00
1444.00	21533.00
1445.00	21546.00
1446.00	21638.00
1447.00	21745.00
1448.00	21688.00
1449.00	22102.00
1450.00	21800.00
1451.00	22342.00
1452.00	22239.00
1453.00	22325.00
1454.00	22174.00
1455.00	22413.00
1456.00	22455.00
1457.00	22385.00
1458.00	22349.00
1459.00	22098.00
1460.00	22345.00
1461.00	22288.00
1462.00	22475.00
1463.00	22582.00
1464.00	22369.00
1465.00	22083.00
1466.00	22085.00
1467.00	22413.00
1468.00	21837.00
1469.00	21882.00
1470.00	22070.00
1471.00	21725.00
1472.00	21650.00
1473.00	21611.00
1474.00	21915.00
1475.00	21693.00
1476.00	21713.00
1477.00	21820.00
1478.00	21917.00
1479.00	21732.00
1480.00	21638.00
1481.00	21685.00
1482.00	21631.00
1483.00	21678.00
1484.00	21854.00
1485.00	21768.00
1486.00	21574.00
1487.00	21892.00
1488.00	21746.00
1489.00	22065.00
1490.00	21890.00
1491.00	22059.00
1492.00	21747.00
1493.00	21924.00
1494.00	21698.00
1495.00	21801.00
1496.00	22022.00
1497.00	22227.00
1498.00	22227.00
1499.00	21882.00
1500.00	22303.00
1501.00	22181.00
1502.00	22491.00
1503.00	22584.00
1504.00	22392.00
1505.00	22347.00
1506.00	22416.00
1507.00	22665.00
1508.00	22549.00
1509.00	22972.00
1510.00	22700.00
1511.00	23093.00
1512.00	23014.00
1513.00	23206.00
1514.00	23447.00
1515.00	23781.00
1516.00	23784.00
1517.00	23902.00
1518.00	24449.00
1519.00	24769.00
1520.00	25153.00
1521.00	25404.00
1522.00	25889.00
1523.00	26567.00
1524.00	26963.00
1525.00	27442.00
1526.00	28143.00
1527.00	28542.00
1528.00	29135.00
1529.00	29800.00
1530.00	30579.00
1531.00	30976.00
1532.00	31731.00
1533.00	32238.00
1534.00	33138.00
1535.00	34035.00
1536.00	34419.00
1537.00	34478.00
1538.00	35121.00
1539.00	35821.00
1540.00	35410.00
1541.00	35744.00
1542.00	35595.00
1543.00	35429.00
1544.00	35637.00
1545.00	35381.00
1546.00	35257.00
1547.00	34541.00
1548.00	34244.00
1549.00	34134.00
1550.00	33526.00
1551.00	33153.00
1552.00	32643.00
1553.00	32626.00
1554.00	32191.00
1555.00	31873.00
1556.00	31917.00
1557.00	32087.00
1558.00	32470.00
1559.00	32107.00
1560.00	32548.00
1561.00	33071.00
1562.00	33158.00
1563.00	33856.00
1564.00	33984.00
1565.00	35012.00
1566.00	35174.00
1567.00	35706.00
1568.00	37041.00
1569.00	37532.00
1570.00	38313.00
1571.00	39233.00
1572.00	39860.00
1573.00	41083.00
1574.00	41940.00
1575.00	43444.00
1576.00	44376.00
1577.00	45586.00
1578.00	46695.00
1579.00	47761.00
1580.00	49330.00
1581.00	50592.00
1582.00	52243.00
1583.00	53513.00
1584.00	54788.00
1585.00	56317.00
1586.00	58115.00
1587.00	59786.00
1588.00	61111.00
1589.00	62616.00
1590.00	63590.00
1591.00	65335.00
1592.00	67082.00
1593.00	68341.00
1594.00	69985.00
1595.00	71090.00
1596.00	72291.00
1597.00	73708.00
1598.00	74410.00
1599.00	75256.00
1600.00	76669.00
1601.00	76181.00
1602.00	77763.00
1603.00	77988.00
1604.00	78190.00
1605.00	78835.00
1606.00	78884.00
1607.00	79580.00
1608.00	79404.00
1609.00	78462.00
1610.00	78864.00
1611.00	78437.00
1612.00	77885.00
1613.00	76952.00
1614.00	76432.00
1615.00	75747.00
1616.00	74688.00
1617.00	73158.00
1618.00	72452.00
1619.00	71408.00
1620.00	70250.00
1621.00	68890.00
1622.00	67235.00
1623.00	65988.00
1624.00	64663.00
1625.00	62674.00
1626.00	61339.00
1627.00	59755.00
1628.00	58250.00
1629.00	56982.00
1630.00	55070.00
1631.00	53817.00
1632.00	52472.00
1633.00	51195.00
1634.00	49362.00
1635.00	47874.00
1636.00	46846.00
1637.00	45546.00
1638.00	44033.00
1639.00	42463.00
1640.00	41744.00
1641.00	40614.00
1642.00	39118.00
1643.00	38059.00
1644.00	37118.00
1645.00	36088.00
1646.00	35147.00
1647.00	34177.00
1648.00	33276.00
1649.00	32452.00
1650.00	31761.00
1651.00	30907.00
1652.00	30090.00
1653.00	29810.00
1654.00	29162.00
1655.00	28657.00
1656.00	27785.00
1657.00	27522.00
1658.00	27236.00
1659.00	26450.00
1660.00	25600.00
1661.00	25737.00
1662.00	25083.00
1663.00	24779.00
1664.00	24466.00
1665.00	24080.00
1666.00	23742.00
1667.00	23544.00
1668.00	23789.00
1669.00	23520.00
1670.00	23179.00
1671.00	23229.00
1672.00	23565.00
1673.00	23375.00
1674.00	23553.00
1675.00	23663.00
1676.00	24028.00
1677.00	24527.00
1678.00	25135.00
1679.00	26108.00
1680.00	26691.00
1681.00	28259.00
1682.00	29143.00
1683.00	30927.00
1684.00	32215.00
1685.00	33906.00
1686.00	36351.00
1687.00	37989.00
1688.00	40024.00
1689.00	42391.00
1690.00	44975.00
1691.00	46632.00
1692.00	49425.00
1693.00	51510.00
1694.00	53427.00
1695.00	55348.00
1696.00	57757.00
1697.00	58966.00
1698.00	60284.00
1699.00	61697.00
1700.00	62295.00
1701.00	62464.00
1702.00	62726.00
1703.00	61950.00
1704.00	61244.00
1705.00	59950.00
1706.00	58982.00
1707.00	56782.00
1708.00	54243.00
1709.00	51735.00
1710.00	49173.00
1711.00	46667.00
1712.00	43892.00
1713.00	41455.00
1714.00	38723.00
1715.00	36087.00
1716.00	33178.00
1717.00	31314.00
1718.00	29158.00
1719.00	27623.00
1720.00	25923.00
1721.00	24442.00
1722.00	23123.00
1723.00	22064.00
1724.00	21125.00
1725.00	20345.00
1726.00	20015.00
1727.00	19645.00
1728.00	19002.00
1729.00	18859.00
1730.00	18397.00
1731.00	18252.00
1732.00	17848.00
1733.00	17852.00
1734.00	18038.00
1735.00	17664.00
1736.00	17589.00
1737.00	17832.00
1738.00	17583.00
1739.00	17650.00
1740.00	17404.00
1741.00	17664.00
1742.00	17601.00
1743.00	17587.00
1744.00	17885.00
1745.00	17671.00
1746.00	17879.00
1747.00	17740.00
1748.00	17974.00
1749.00	18061.00
1750.00	18174.00
1751.00	18348.00
1752.00	18281.00
1753.00	18521.00
1754.00	18517.00
1755.00	18650.00
1756.00	18576.00
1757.00	18855.00
1758.00	19037.00
1759.00	19149.00
1760.00	19288.00
1761.00	19597.00
1762.00	19629.00
1763.00	19768.00
1764.00	20092.00
1765.00	20062.00
1766.00	20239.00
1767.00	20603.00
1768.00	20908.00
1769.00	20859.00
1770.00	21061.00
1771.00	21618.00
1772.00	21595.00
1773.00	21431.00
1774.00	22088.00
1775.00	22295.00
1776.00	22229.00
1777.00	22576.00
1778.00	22731.00
1779.00	22816.00
1780.00	23015.00
1781.00	23273.00
1782.00	23475.00
1783.00	23514.00
1784.00	23393.00
1785.00	23640.00
1786.00	23893.00
1787.00	23771.00
1788.00	24070.00
1789.00	24013.00
1790.00	24010.00
1791.00	24043.00
1792.00	24225.00
1793.00	24188.00
1794.00	24282.00
1795.00	23996.00
1796.00	24173.00
1797.00	24058.00
1798.00	24054.00
1799.00	23795.00
1800.00	23368.00
1801.00	23397.00
1802.00	23292.00
1803.00	23197.00
1804.00	23095.00
1805.00	22768.00
1806.00	22593.00
1807.00	22354.00
1808.00	21797.00
1809.00	22143.00
1810.00	21701.00
1811.00	21309.00
1812.00	21014.00
1813.00	20782.00
1814.00	20423.00
1815.00	20386.00
1816.00	19978.00
1817.00	19558.00
1818.00	19444.00
1819.00	19230.00
1820.00	18670.00
1821.00	18277.00
1822.00	18089.00
1823.00	18054.00
1824.00	17628.00
1825.00	17278.00
1826.00	16962.00
1827.00	16656.00
1828.00	16466.00
1829.00	16023.00
1830.00	15586.00
1831.00	15553.00
1832.00	15388.00
1833.00	15065.00
1834.00	14982.00
1835.00	14954.00
1836.00	14561.00
1837.00	14089.00
1838.00	13865.00
1839.00	13792.00
1840.00	13640.00
1841.00	13308.00
1842.00	13308.00
1843.00	12960.00
1844.00	12708.00
1845.00	12637.00
1846.00	12408.00
1847.00	12357.00
1848.00	12265.00
1849.00	11990.00
1850.00	11767.00
1851.00	11682.00
1852.00	11541.00
1853.00	11473.00
1854.00	11253.00
1855.00	11135.00
1856.00	11134.00
1857.00	10676.00
1858.00	10599.00
1859.00	10635.00
1860.00	10693.00
1861.00	10407.00
1862.00	10376.00
1863.00	10099.00
1864.00	9964.00
1865.00	9795.00
1866.00	9930.00
1867.00	9725.00
1868.00	9831.00
1869.00	9534.00
1870.00	9512.00
1871.00	9498.00
1872.00	9497.00
1873.00	9095.00
1874.00	9302.00
1875.00	9308.00
1876.00	9043.00
1877.00	9215.00
1878.00	9119.00
1879.00	9019.00
1880.00	8949.00
1881.00	8940.00
1882.00	8926.00
1883.00	8951.00
1884.00	8872.00
1885.00	8903.00
1886.00	8878.00
1887.00	8926.00
1888.00	8985.00
1889.00	9062.00
1890.00	9076.00
1891.00	9087.00
1892.00	9253.00
1893.00	9330.00
1894.00	9468.00
1895.00	9865.00
1896.00	10047.00
1897.00	10275.00
1898.00	10672.00
1899.00	10966.00
1900.00	11310.00
1901.00	11637.00
1902.00	12027.00
1903.00	12218.00
1904.00	12562.00
1905.00	12774.00
1906.00	13220.00
1907.00	13472.00
1908.00	13814.00
1909.00	13833.00
1910.00	13900.00
1911.00	13668.00
1912.00	13720.00
1913.00	13772.00
1914.00	13561.00
1915.00	13245.00
1916.00	12908.00
1917.00	12661.00
1918.00	12146.00
1919.00	11876.00
1920.00	11639.00
1921.00	11298.00
1922.00	10849.00
1923.00	10460.00
1924.00	10089.00
1925.00	9752.00
1926.00	9580.00
1927.00	9180.00
1928.00	8804.00
1929.00	8721.00
1930.00	8553.00
1931.00	8405.00
1932.00	8248.00
1933.00	8093.00
1934.00	8164.00
1935.00	7986.00
1936.00	8233.00
1937.00	7893.00
1938.00	7908.00
1939.00	7875.00
1940.00	7924.00
1941.00	7951.00
1942.00	7939.00
1943.00	7815.00
1944.00	7874.00
1945.00	7839.00
1946.00	7722.00
1947.00	7871.00
1948.00	7727.00
1949.00	7764.00
1950.00	7808.00
1951.00	7579.00
1952.00	7265.00
1953.00	7451.00
1954.00	7303.00
1955.00	7174.00
1956.00	7055.00
1957.00	6734.00
1958.00	6919.00
1959.00	6728.00
1960.00	6852.00
1961.00	6527.00
1962.00	6539.00
1963.00	6556.00
1964.00	6453.00
1965.00	6354.00
1966.00	6368.00
1967.00	6333.00
1968.00	6443.00
1969.00	6402.00
1970.00	6216.00
1971.00	6122.00
1972.00	6190.00
1973.00	6223.00
1974.00	6191.00
1975.00	6295.00
1976.00	6113.00
1977.00	6121.00
1978.00	6124.00
1979.00	6222.00
1980.00	6132.00
1981.00	6102.00
1982.00	6147.00
1983.00	6044.00
1984.00	6083.00
1985.00	6147.00
1986.00	6083.00
1987.00	6072.00
1988.00	5993.00
1989.00	6060.00
1990.00	6138.00
1991.00	6057.00
1992.00	6122.00
1993.00	6081.00
1994.00	5980.00
1995.00	5867.00
1996.00	6130.00
1997.00	6110.00
1998.00	6059.00
1999.00	6041.00
2000.00	5798.00
2001.00	5891.00
2002.00	5935.00
2003.00	6024.00
2004.00	5847.00
2005.00	5947.00
2006.00	5780.00
2007.00	5995.00
2008.00	6041.00
2009.00	5941.00
2010.00	5863.00
2011.00	5920.00
2012.00	5860.00
2013.00	5912.00
2014.00	5868.00
2015.00	5953.00
2016.00	5686.00
2017.00	5874.00
2018.00	5853.00
2019.00	5804.00
2020.00	5857.00
2021.00	5794.00
2022.00	5857.00
2023.00	5702.00
2024.00	5776.00
2025.00	5797.00
2026.00	5902.00
2027.00	5836.00
2028.00	5883.00
2029.00	5797.00
2030.00	5698.00
2031.00	5728.00
2032.00	5725.00
2033.00	5668.00
2034.00	5682.00
2035.00	5862.00
2036.00	5779.00
2037.00	5719.00
2038.00	5788.00
2039.00	5773.00
2040.00	5672.00
2041.00	5835.00
2042.00	5608.00
2043.00	5831.00
2044.00	5731.00
2045.00	5725.00
2046.00	5580.00
2047.00	5578.00
2048.00	 0.00
