Date:	01/02/2022		
Time:	17:21		
Sample name:	JC36_74_4		
Position:	1504.105018	mm	
Sample surface:	7.282134	cm	
Tube anode:	Mo		
Tube voltage:	30	kV	
Tube current:	30	mA	
Comments	not in position		
Gain	2.150000		
peaking_time	0.300000	m-sec	
trigger_threshold	40.000000	V	
mca_bin_width	2.000000	no:	
number_mca_channels	2048.000000	no:	
gap_time	0.100000	m-sec	
trigger_peaking_time	0.050000	m-sec	
livetime	12.537525	seconds	
runtime	15.000282	seconds	
input_count_rate	75272.829236	cps	
output_count_rate	62914.483874	cps	
triggers	1093529.000000	seconds	
events_in_run	905147.000000	seconds	
channel	content		
 1.00	 0.00
 2.00	 0.00
 3.00	 0.00
 4.00	 0.00
 5.00	 0.00
 6.00	 0.00
 7.00	 0.00
 8.00	 0.00
 9.00	 0.00
10.00	 0.00
11.00	 0.00
12.00	 0.00
13.00	 0.00
14.00	 0.00
15.00	 0.00
16.00	 0.00
17.00	 0.00
18.00	 0.00
19.00	 0.00
20.00	 0.00
21.00	 0.00
22.00	 0.00
23.00	 0.00
24.00	 0.00
25.00	 0.00
26.00	 0.00
27.00	 0.00
28.00	 0.00
29.00	 0.00
30.00	 0.00
31.00	731.00
32.00	768.00
33.00	765.00
34.00	732.00
35.00	693.00
36.00	747.00
37.00	766.00
38.00	741.00
39.00	762.00
40.00	723.00
41.00	692.00
42.00	719.00
43.00	718.00
44.00	751.00
45.00	801.00
46.00	874.00
47.00	953.00
48.00	1115.00
49.00	1375.00
50.00	1948.00
51.00	2780.00
52.00	3925.00
53.00	5003.00
54.00	6706.00
55.00	8860.00
56.00	11415.00
57.00	16159.00
58.00	23162.00
59.00	31964.00
60.00	40649.00
61.00	47369.00
62.00	52074.00
63.00	53704.00
64.00	53788.00
65.00	51961.00
66.00	50422.00
67.00	48622.00
68.00	47239.00
69.00	46017.00
70.00	46099.00
71.00	45703.00
72.00	44778.00
73.00	45037.00
74.00	44829.00
75.00	44255.00
76.00	44130.00
77.00	43666.00
78.00	43640.00
79.00	43535.00
80.00	43759.00
81.00	43736.00
82.00	43999.00
83.00	44829.00
84.00	45669.00
85.00	45345.00
86.00	45198.00
87.00	44839.00
88.00	44052.00
89.00	42818.00
90.00	42110.00
91.00	40650.00
92.00	39640.00
93.00	39221.00
94.00	38688.00
95.00	38023.00
96.00	37416.00
97.00	37220.00
98.00	36876.00
99.00	36457.00
100.00	36110.00
101.00	35437.00
102.00	35554.00
103.00	35297.00
104.00	34837.00
105.00	34382.00
106.00	34219.00
107.00	33358.00
108.00	33291.00
109.00	32596.00
110.00	31987.00
111.00	31585.00
112.00	31395.00
113.00	31037.00
114.00	30314.00
115.00	30569.00
116.00	30322.00
117.00	30279.00
118.00	29920.00
119.00	29649.00
120.00	29365.00
121.00	29068.00
122.00	28380.00
123.00	28117.00
124.00	27551.00
125.00	26822.00
126.00	26621.00
127.00	25883.00
128.00	25780.00
129.00	25748.00
130.00	25424.00
131.00	25267.00
132.00	24785.00
133.00	24750.00
134.00	24513.00
135.00	24597.00
136.00	24320.00
137.00	24371.00
138.00	24781.00
139.00	25587.00
140.00	26837.00
141.00	27964.00
142.00	30211.00
143.00	31898.00
144.00	33562.00
145.00	34257.00
146.00	34611.00
147.00	33525.00
148.00	33093.00
149.00	31555.00
150.00	30550.00
151.00	29599.00
152.00	28817.00
153.00	28344.00
154.00	27787.00
155.00	27061.00
156.00	25869.00
157.00	24907.00
158.00	23729.00
159.00	23097.00
160.00	23221.00
161.00	24985.00
162.00	28913.00
163.00	35775.00
164.00	47039.00
165.00	63726.00
166.00	84861.00
167.00	109978.00
168.00	133756.00
169.00	155071.00
170.00	166937.00
171.00	169002.00
172.00	159497.00
173.00	142416.00
174.00	120078.00
175.00	96357.00
176.00	76007.00
177.00	60180.00
178.00	49244.00
179.00	41775.00
180.00	38521.00
181.00	37269.00
182.00	38026.00
183.00	40870.00
184.00	46452.00
185.00	55070.00
186.00	66983.00
187.00	81149.00
188.00	96015.00
189.00	109127.00
190.00	118061.00
191.00	121014.00
192.00	116035.00
193.00	106706.00
194.00	91694.00
195.00	75603.00
196.00	59683.00
197.00	46618.00
198.00	36296.00
199.00	28709.00
200.00	23673.00
201.00	20709.00
202.00	18770.00
203.00	17780.00
204.00	17468.00
205.00	17162.00
206.00	17134.00
207.00	17098.00
208.00	16813.00
209.00	17038.00
210.00	16953.00
211.00	17266.00
212.00	17549.00
213.00	17778.00
214.00	18266.00
215.00	19593.00
216.00	20449.00
217.00	22138.00
218.00	24224.00
219.00	26943.00
220.00	29777.00
221.00	32657.00
222.00	34649.00
223.00	36190.00
224.00	36662.00
225.00	36311.00
226.00	35038.00
227.00	33021.00
228.00	30244.00
229.00	27229.00
230.00	24002.00
231.00	21419.00
232.00	19219.00
233.00	17453.00
234.00	16140.00
235.00	15373.00
236.00	14860.00
237.00	14549.00
238.00	14515.00
239.00	14384.00
240.00	14641.00
241.00	15076.00
242.00	15517.00
243.00	16416.00
244.00	17391.00
245.00	19470.00
246.00	23467.00
247.00	29669.00
248.00	39656.00
249.00	55247.00
250.00	76159.00
251.00	103928.00
252.00	136898.00
253.00	175039.00
254.00	211451.00
255.00	242315.00
256.00	263861.00
257.00	271200.00
258.00	263808.00
259.00	243708.00
260.00	211540.00
261.00	173970.00
262.00	136915.00
263.00	102993.00
264.00	75963.00
265.00	54549.00
266.00	40247.00
267.00	31701.00
268.00	27621.00
269.00	26792.00
270.00	28078.00
271.00	30447.00
272.00	33722.00
273.00	36764.00
274.00	39580.00
275.00	41301.00
276.00	41886.00
277.00	41010.00
278.00	39118.00
279.00	37725.00
280.00	36345.00
281.00	35435.00
282.00	36426.00
283.00	40259.00
284.00	45335.00
285.00	52512.00
286.00	61340.00
287.00	69059.00
288.00	76135.00
289.00	80759.00
290.00	81177.00
291.00	78822.00
292.00	72888.00
293.00	64502.00
294.00	55218.00
295.00	45998.00
296.00	37495.00
297.00	30435.00
298.00	24874.00
299.00	21098.00
300.00	18579.00
301.00	16859.00
302.00	16222.00
303.00	16205.00
304.00	16819.00
305.00	17564.00
306.00	18765.00
307.00	20126.00
308.00	22113.00
309.00	24029.00
310.00	27019.00
311.00	30538.00
312.00	36140.00
313.00	43744.00
314.00	56262.00
315.00	73998.00
316.00	99673.00
317.00	136273.00
318.00	183234.00
319.00	237493.00
320.00	299214.00
321.00	362390.00
322.00	418380.00
323.00	462549.00
324.00	485338.00
325.00	487069.00
326.00	463370.00
327.00	420619.00
328.00	363196.00
329.00	299753.00
330.00	237170.00
331.00	178435.00
332.00	130626.00
333.00	93101.00
334.00	65158.00
335.00	47039.00
336.00	35247.00
337.00	29303.00
338.00	27033.00
339.00	27263.00
340.00	29992.00
341.00	35322.00
342.00	42505.00
343.00	53625.00
344.00	69311.00
345.00	93699.00
346.00	128724.00
347.00	181759.00
348.00	264294.00
349.00	394687.00
350.00	594060.00
351.00	889863.00
352.00	1321380.00
353.00	1906708.00
354.00	2669668.00
355.00	3612992.00
356.00	4699791.00
357.00	5849878.00
358.00	6968342.00
359.00	7937743.00
360.00	8649407.00
361.00	8973388.00
362.00	8892490.00
363.00	8405342.00
364.00	7598120.00
365.00	6533766.00
366.00	5375648.00
367.00	4219221.00
368.00	3167202.00
369.00	2271669.00
370.00	1559026.00
371.00	1028499.00
372.00	655374.00
373.00	409382.00
374.00	251577.00
375.00	160446.00
376.00	109974.00
377.00	87253.00
378.00	82108.00
379.00	88249.00
380.00	105423.00
381.00	134160.00
382.00	176551.00
383.00	237927.00
384.00	317887.00
385.00	423156.00
386.00	550116.00
387.00	697921.00
388.00	856976.00
389.00	1016280.00
390.00	1159428.00
391.00	1275451.00
392.00	1340749.00
393.00	1352710.00
394.00	1310645.00
395.00	1218369.00
396.00	1083935.00
397.00	923231.00
398.00	757040.00
399.00	591820.00
400.00	447612.00
401.00	323758.00
402.00	226505.00
403.00	153254.00
404.00	101287.00
405.00	66234.00
406.00	43015.00
407.00	29337.00
408.00	20733.00
409.00	16043.00
410.00	13588.00
411.00	12340.00
412.00	11594.00
413.00	11219.00
414.00	11231.00
415.00	11414.00
416.00	11245.00
417.00	11207.00
418.00	11348.00
419.00	11628.00
420.00	11493.00
421.00	11705.00
422.00	12234.00
423.00	12486.00
424.00	13189.00
425.00	14534.00
426.00	16100.00
427.00	18505.00
428.00	22427.00
429.00	28104.00
430.00	36526.00
431.00	48295.00
432.00	63265.00
433.00	82987.00
434.00	106112.00
435.00	131959.00
436.00	159128.00
437.00	187287.00
438.00	212361.00
439.00	233461.00
440.00	245021.00
441.00	250173.00
442.00	243780.00
443.00	230286.00
444.00	211831.00
445.00	186391.00
446.00	158626.00
447.00	133797.00
448.00	109447.00
449.00	89327.00
450.00	74285.00
451.00	62252.00
452.00	53855.00
453.00	48813.00
454.00	44860.00
455.00	42790.00
456.00	40300.00
457.00	37933.00
458.00	35351.00
459.00	32872.00
460.00	30346.00
461.00	27562.00
462.00	25891.00
463.00	24424.00
464.00	23396.00
465.00	23436.00
466.00	23779.00
467.00	25347.00
468.00	26641.00
469.00	28262.00
470.00	30864.00
471.00	33361.00
472.00	35904.00
473.00	39609.00
474.00	42636.00
475.00	46555.00
476.00	50950.00
477.00	55257.00
478.00	59522.00
479.00	63677.00
480.00	67662.00
481.00	69378.00
482.00	70483.00
483.00	70042.00
484.00	67727.00
485.00	64677.00
486.00	59972.00
487.00	54495.00
488.00	48861.00
489.00	43613.00
490.00	38323.00
491.00	33660.00
492.00	29961.00
493.00	27168.00
494.00	24933.00
495.00	23811.00
496.00	22521.00
497.00	22252.00
498.00	22126.00
499.00	22493.00
500.00	22621.00
501.00	22994.00
502.00	23886.00
503.00	24720.00
504.00	25414.00
505.00	26418.00
506.00	27042.00
507.00	28320.00
508.00	28922.00
509.00	30099.00
510.00	31204.00
511.00	32137.00
512.00	33637.00
513.00	34723.00
514.00	35958.00
515.00	37955.00
516.00	39381.00
517.00	41303.00
518.00	43675.00
519.00	46570.00
520.00	49608.00
521.00	53743.00
522.00	57853.00
523.00	62298.00
524.00	67594.00
525.00	72112.00
526.00	76501.00
527.00	79313.00
528.00	81033.00
529.00	81845.00
530.00	80934.00
531.00	78033.00
532.00	74368.00
533.00	70071.00
534.00	64629.00
535.00	59733.00
536.00	54495.00
537.00	50172.00
538.00	46538.00
539.00	43921.00
540.00	41670.00
541.00	39890.00
542.00	39450.00
543.00	38863.00
544.00	39037.00
545.00	39257.00
546.00	40102.00
547.00	40330.00
548.00	41028.00
549.00	41555.00
550.00	41908.00
551.00	42620.00
552.00	43364.00
553.00	44054.00
554.00	44749.00
555.00	45760.00
556.00	46215.00
557.00	46863.00
558.00	47676.00
559.00	48468.00
560.00	49393.00
561.00	51147.00
562.00	52172.00
563.00	54528.00
564.00	56829.00
565.00	60618.00
566.00	64751.00
567.00	70351.00
568.00	76912.00
569.00	83863.00
570.00	92202.00
571.00	101023.00
572.00	108373.00
573.00	116609.00
574.00	122368.00
575.00	127225.00
576.00	128543.00
577.00	127862.00
578.00	123988.00
579.00	118424.00
580.00	110637.00
581.00	102665.00
582.00	93027.00
583.00	84436.00
584.00	76189.00
585.00	68049.00
586.00	61888.00
587.00	56694.00
588.00	53360.00
589.00	50188.00
590.00	48086.00
591.00	47317.00
592.00	47137.00
593.00	46948.00
594.00	47528.00
595.00	48528.00
596.00	50020.00
597.00	51349.00
598.00	52863.00
599.00	54681.00
600.00	57438.00
601.00	59946.00
602.00	63923.00
603.00	67773.00
604.00	74957.00
605.00	84421.00
606.00	98432.00
607.00	120784.00
608.00	154178.00
609.00	205269.00
610.00	280873.00
611.00	390249.00
612.00	544239.00
613.00	752937.00
614.00	1032201.00
615.00	1388451.00
616.00	1824567.00
617.00	2340268.00
618.00	2925416.00
619.00	3563646.00
620.00	4210973.00
621.00	4841307.00
622.00	5409749.00
623.00	5869539.00
624.00	6170797.00
625.00	6304579.00
626.00	6259592.00
627.00	6024123.00
628.00	5623119.00
629.00	5104622.00
630.00	4501617.00
631.00	3846243.00
632.00	3198245.00
633.00	2589209.00
634.00	2037584.00
635.00	1559772.00
636.00	1172995.00
637.00	861492.00
638.00	624625.00
639.00	448706.00
640.00	323111.00
641.00	235845.00
642.00	179025.00
643.00	140554.00
644.00	115616.00
645.00	100853.00
646.00	91866.00
647.00	86091.00
648.00	84029.00
649.00	81560.00
650.00	80464.00
651.00	80353.00
652.00	80033.00
653.00	80907.00
654.00	80761.00
655.00	81499.00
656.00	82403.00
657.00	83494.00
658.00	84469.00
659.00	85033.00
660.00	86956.00
661.00	88502.00
662.00	90061.00
663.00	91584.00
664.00	93877.00
665.00	96126.00
666.00	98736.00
667.00	101416.00
668.00	105413.00
669.00	110705.00
670.00	116919.00
671.00	123799.00
672.00	134053.00
673.00	147651.00
674.00	164611.00
675.00	186186.00
676.00	218247.00
677.00	256973.00
678.00	306306.00
679.00	366462.00
680.00	436498.00
681.00	518971.00
682.00	608960.00
683.00	701964.00
684.00	797006.00
685.00	886866.00
686.00	962115.00
687.00	1022890.00
688.00	1063228.00
689.00	1076198.00
690.00	1063851.00
691.00	1028382.00
692.00	965733.00
693.00	886589.00
694.00	798740.00
695.00	701638.00
696.00	604324.00
697.00	509225.00
698.00	424253.00
699.00	350945.00
700.00	287125.00
701.00	235024.00
702.00	195740.00
703.00	163873.00
704.00	141364.00
705.00	125837.00
706.00	114770.00
707.00	107565.00
708.00	103435.00
709.00	101723.00
710.00	100986.00
711.00	101407.00
712.00	102026.00
713.00	104050.00
714.00	106245.00
715.00	108839.00
716.00	111142.00
717.00	114799.00
718.00	118385.00
719.00	122314.00
720.00	125972.00
721.00	130386.00
722.00	134537.00
723.00	138587.00
724.00	142912.00
725.00	146504.00
726.00	149310.00
727.00	151416.00
728.00	152049.00
729.00	153841.00
730.00	152607.00
731.00	151593.00
732.00	149344.00
733.00	145596.00
734.00	141974.00
735.00	138553.00
736.00	134041.00
737.00	130550.00
738.00	126280.00
739.00	123732.00
740.00	119526.00
741.00	116686.00
742.00	115753.00
743.00	113526.00
744.00	112934.00
745.00	112096.00
746.00	111353.00
747.00	110785.00
748.00	111623.00
749.00	111477.00
750.00	110896.00
751.00	111332.00
752.00	111069.00
753.00	110461.00
754.00	111087.00
755.00	110917.00
756.00	111597.00
757.00	111837.00
758.00	112531.00
759.00	112377.00
760.00	112689.00
761.00	113009.00
762.00	113908.00
763.00	114799.00
764.00	115300.00
765.00	115894.00
766.00	117792.00
767.00	118834.00
768.00	120030.00
769.00	122714.00
770.00	124209.00
771.00	126598.00
772.00	129615.00
773.00	131556.00
774.00	135082.00
775.00	139407.00
776.00	143021.00
777.00	147626.00
778.00	151996.00
779.00	156640.00
780.00	162918.00
781.00	168895.00
782.00	174435.00
783.00	180630.00
784.00	184667.00
785.00	191021.00
786.00	196445.00
787.00	201176.00
788.00	205535.00
789.00	209977.00
790.00	214352.00
791.00	217270.00
792.00	221557.00
793.00	222956.00
794.00	227101.00
795.00	228826.00
796.00	230727.00
797.00	233213.00
798.00	234990.00
799.00	236419.00
800.00	239566.00
801.00	241323.00
802.00	243348.00
803.00	246279.00
804.00	250317.00
805.00	255209.00
806.00	262754.00
807.00	268609.00
808.00	280447.00
809.00	292529.00
810.00	305163.00
811.00	321193.00
812.00	338353.00
813.00	356452.00
814.00	375004.00
815.00	391307.00
816.00	406713.00
817.00	418690.00
818.00	425724.00
819.00	429800.00
820.00	429294.00
821.00	422558.00
822.00	411333.00
823.00	395481.00
824.00	377023.00
825.00	356311.00
826.00	334921.00
827.00	314089.00
828.00	292623.00
829.00	274456.00
830.00	257676.00
831.00	245618.00
832.00	233039.00
833.00	225399.00
834.00	219827.00
835.00	215769.00
836.00	214175.00
837.00	214534.00
838.00	213299.00
839.00	214558.00
840.00	214502.00
841.00	215353.00
842.00	215234.00
843.00	215198.00
844.00	216172.00
845.00	215005.00
846.00	214911.00
847.00	212734.00
848.00	210986.00
849.00	209308.00
850.00	207584.00
851.00	206240.00
852.00	203513.00
853.00	202397.00
854.00	201486.00
855.00	200835.00
856.00	200037.00
857.00	198895.00
858.00	199706.00
859.00	198376.00
860.00	199074.00
861.00	199794.00
862.00	200171.00
863.00	200612.00
864.00	201239.00
865.00	202130.00
866.00	202243.00
867.00	202597.00
868.00	203164.00
869.00	204699.00
870.00	204700.00
871.00	205156.00
872.00	206409.00
873.00	205892.00
874.00	207372.00
875.00	207964.00
876.00	207965.00
877.00	208260.00
878.00	209376.00
879.00	209945.00
880.00	211760.00
881.00	211847.00
882.00	213254.00
883.00	213323.00
884.00	214650.00
885.00	216821.00
886.00	219112.00
887.00	221377.00
888.00	223327.00
889.00	226073.00
890.00	228012.00
891.00	229804.00
892.00	233581.00
893.00	236802.00
894.00	240002.00
895.00	242392.00
896.00	246789.00
897.00	250236.00
898.00	254305.00
899.00	256522.00
900.00	260964.00
901.00	264093.00
902.00	267968.00
903.00	270152.00
904.00	273647.00
905.00	277675.00
906.00	278892.00
907.00	280998.00
908.00	284762.00
909.00	287020.00
910.00	288521.00
911.00	290407.00
912.00	292074.00
913.00	295021.00
914.00	295176.00
915.00	297722.00
916.00	298567.00
917.00	300718.00
918.00	302542.00
919.00	304315.00
920.00	305702.00
921.00	307535.00
922.00	309104.00
923.00	310065.00
924.00	312480.00
925.00	314223.00
926.00	317061.00
927.00	319470.00
928.00	323206.00
929.00	326078.00
930.00	330355.00
931.00	336008.00
932.00	340490.00
933.00	346365.00
934.00	354020.00
935.00	361158.00
936.00	369492.00
937.00	376363.00
938.00	385206.00
939.00	392773.00
940.00	400296.00
941.00	404205.00
942.00	407918.00
943.00	411696.00
944.00	410014.00
945.00	407665.00
946.00	404364.00
947.00	398945.00
948.00	391078.00
949.00	381652.00
950.00	372121.00
951.00	363623.00
952.00	353702.00
953.00	345236.00
954.00	337827.00
955.00	329874.00
956.00	324337.00
957.00	320122.00
958.00	314220.00
959.00	312236.00
960.00	310611.00
961.00	310714.00
962.00	309166.00
963.00	309433.00
964.00	309161.00
965.00	310832.00
966.00	313296.00
967.00	314114.00
968.00	314836.00
969.00	316577.00
970.00	318363.00
971.00	317720.00
972.00	317732.00
973.00	316848.00
974.00	315607.00
975.00	313326.00
976.00	309736.00
977.00	306966.00
978.00	303342.00
979.00	299508.00
980.00	295923.00
981.00	293359.00
982.00	290390.00
983.00	286733.00
984.00	283342.00
985.00	281523.00
986.00	280246.00
987.00	278582.00
988.00	276858.00
989.00	274951.00
990.00	274306.00
991.00	273867.00
992.00	272755.00
993.00	271280.00
994.00	271286.00
995.00	270208.00
996.00	269548.00
997.00	269516.00
998.00	269202.00
999.00	267507.00
1000.00	268824.00
1001.00	267941.00
1002.00	267607.00
1003.00	267252.00
1004.00	267450.00
1005.00	268017.00
1006.00	267853.00
1007.00	268109.00
1008.00	268071.00
1009.00	269451.00
1010.00	268363.00
1011.00	268593.00
1012.00	269891.00
1013.00	270007.00
1014.00	270490.00
1015.00	271684.00
1016.00	271577.00
1017.00	273650.00
1018.00	274217.00
1019.00	275688.00
1020.00	275895.00
1021.00	278847.00
1022.00	277438.00
1023.00	279607.00
1024.00	280745.00
1025.00	281537.00
1026.00	283107.00
1027.00	282450.00
1028.00	283911.00
1029.00	283430.00
1030.00	284516.00
1031.00	283297.00
1032.00	283905.00
1033.00	284448.00
1034.00	283178.00
1035.00	283966.00
1036.00	284844.00
1037.00	282685.00
1038.00	282547.00
1039.00	282272.00
1040.00	282790.00
1041.00	282888.00
1042.00	283497.00
1043.00	284156.00
1044.00	283978.00
1045.00	285305.00
1046.00	286327.00
1047.00	286844.00
1048.00	288147.00
1049.00	288828.00
1050.00	289572.00
1051.00	291027.00
1052.00	290887.00
1053.00	293075.00
1054.00	293888.00
1055.00	294422.00
1056.00	296641.00
1057.00	297213.00
1058.00	298774.00
1059.00	299298.00
1060.00	299570.00
1061.00	301261.00
1062.00	301308.00
1063.00	302431.00
1064.00	302815.00
1065.00	303577.00
1066.00	303933.00
1067.00	303280.00
1068.00	304947.00
1069.00	305849.00
1070.00	304368.00
1071.00	305417.00
1072.00	306052.00
1073.00	306054.00
1074.00	305750.00
1075.00	305487.00
1076.00	305533.00
1077.00	306100.00
1078.00	306937.00
1079.00	306234.00
1080.00	306798.00
1081.00	307070.00
1082.00	307986.00
1083.00	308033.00
1084.00	308039.00
1085.00	309862.00
1086.00	310586.00
1087.00	311181.00
1088.00	312378.00
1089.00	313934.00
1090.00	315546.00
1091.00	316511.00
1092.00	318135.00
1093.00	321209.00
1094.00	321864.00
1095.00	324064.00
1096.00	325682.00
1097.00	327520.00
1098.00	328850.00
1099.00	330017.00
1100.00	330945.00
1101.00	332215.00
1102.00	331033.00
1103.00	330827.00
1104.00	330692.00
1105.00	329677.00
1106.00	327774.00
1107.00	327657.00
1108.00	327156.00
1109.00	326090.00
1110.00	325917.00
1111.00	324104.00
1112.00	322476.00
1113.00	322759.00
1114.00	321626.00
1115.00	321385.00
1116.00	319935.00
1117.00	321525.00
1118.00	320917.00
1119.00	321133.00
1120.00	321151.00
1121.00	320885.00
1122.00	321264.00
1123.00	322060.00
1124.00	322865.00
1125.00	322881.00
1126.00	322682.00
1127.00	323746.00
1128.00	325032.00
1129.00	324433.00
1130.00	325653.00
1131.00	326354.00
1132.00	325647.00
1133.00	326872.00
1134.00	326685.00
1135.00	326817.00
1136.00	327486.00
1137.00	327170.00
1138.00	327756.00
1139.00	328278.00
1140.00	328200.00
1141.00	327408.00
1142.00	327667.00
1143.00	329267.00
1144.00	331004.00
1145.00	332295.00
1146.00	333612.00
1147.00	336295.00
1148.00	339121.00
1149.00	341618.00
1150.00	346049.00
1151.00	350622.00
1152.00	355240.00
1153.00	360184.00
1154.00	365443.00
1155.00	370272.00
1156.00	376405.00
1157.00	380827.00
1158.00	385238.00
1159.00	388271.00
1160.00	390496.00
1161.00	392733.00
1162.00	392759.00
1163.00	392442.00
1164.00	391006.00
1165.00	387904.00
1166.00	384900.00
1167.00	379678.00
1168.00	374212.00
1169.00	369880.00
1170.00	364466.00
1171.00	358838.00
1172.00	353449.00
1173.00	348355.00
1174.00	345269.00
1175.00	341253.00
1176.00	337678.00
1177.00	335234.00
1178.00	332336.00
1179.00	330708.00
1180.00	328454.00
1181.00	327083.00
1182.00	327688.00
1183.00	325915.00
1184.00	326410.00
1185.00	326240.00
1186.00	326218.00
1187.00	325304.00
1188.00	324286.00
1189.00	324910.00
1190.00	326191.00
1191.00	326476.00
1192.00	325703.00
1193.00	326521.00
1194.00	327334.00
1195.00	327065.00
1196.00	327941.00
1197.00	327442.00
1198.00	330091.00
1199.00	328980.00
1200.00	329109.00
1201.00	329628.00
1202.00	330846.00
1203.00	329933.00
1204.00	331793.00
1205.00	331961.00
1206.00	332516.00
1207.00	333118.00
1208.00	333175.00
1209.00	333504.00
1210.00	334434.00
1211.00	335329.00
1212.00	335916.00
1213.00	337040.00
1214.00	336633.00
1215.00	336564.00
1216.00	336931.00
1217.00	338692.00
1218.00	339907.00
1219.00	340270.00
1220.00	340327.00
1221.00	341349.00
1222.00	341648.00
1223.00	341879.00
1224.00	343091.00
1225.00	345130.00
1226.00	343117.00
1227.00	344340.00
1228.00	344471.00
1229.00	345813.00
1230.00	346460.00
1231.00	346674.00
1232.00	347704.00
1233.00	347673.00
1234.00	347077.00
1235.00	346843.00
1236.00	349772.00
1237.00	348868.00
1238.00	348511.00
1239.00	348196.00
1240.00	348886.00
1241.00	349228.00
1242.00	348832.00
1243.00	347785.00
1244.00	348771.00
1245.00	349948.00
1246.00	349668.00
1247.00	348850.00
1248.00	348586.00
1249.00	350034.00
1250.00	350086.00
1251.00	350047.00
1252.00	349135.00
1253.00	350142.00
1254.00	349696.00
1255.00	351558.00
1256.00	351045.00
1257.00	350013.00
1258.00	350682.00
1259.00	350947.00
1260.00	351255.00
1261.00	351154.00
1262.00	352872.00
1263.00	352208.00
1264.00	351713.00
1265.00	351469.00
1266.00	351736.00
1267.00	352425.00
1268.00	352241.00
1269.00	351862.00
1270.00	351644.00
1271.00	352084.00
1272.00	352745.00
1273.00	352714.00
1274.00	353252.00
1275.00	352921.00
1276.00	353405.00
1277.00	352176.00
1278.00	353437.00
1279.00	355753.00
1280.00	354292.00
1281.00	355593.00
1282.00	356838.00
1283.00	358430.00
1284.00	359672.00
1285.00	362120.00
1286.00	364277.00
1287.00	367680.00
1288.00	369346.00
1289.00	372523.00
1290.00	377823.00
1291.00	383169.00
1292.00	386757.00
1293.00	392153.00
1294.00	397495.00
1295.00	402856.00
1296.00	407263.00
1297.00	411490.00
1298.00	417558.00
1299.00	420813.00
1300.00	424589.00
1301.00	428224.00
1302.00	431200.00
1303.00	431872.00
1304.00	432988.00
1305.00	433082.00
1306.00	431516.00
1307.00	428386.00
1308.00	425769.00
1309.00	422172.00
1310.00	418381.00
1311.00	413280.00
1312.00	408866.00
1313.00	404573.00
1314.00	400145.00
1315.00	394105.00
1316.00	389198.00
1317.00	384006.00
1318.00	381014.00
1319.00	377621.00
1320.00	374507.00
1321.00	371229.00
1322.00	370415.00
1323.00	367307.00
1324.00	367734.00
1325.00	366070.00
1326.00	364512.00
1327.00	363802.00
1328.00	362796.00
1329.00	364141.00
1330.00	363833.00
1331.00	363101.00
1332.00	364035.00
1333.00	363652.00
1334.00	363287.00
1335.00	363649.00
1336.00	363977.00
1337.00	364383.00
1338.00	363965.00
1339.00	364498.00
1340.00	363786.00
1341.00	365471.00
1342.00	363857.00
1343.00	365678.00
1344.00	365439.00
1345.00	364550.00
1346.00	365887.00
1347.00	366421.00
1348.00	367672.00
1349.00	367940.00
1350.00	369284.00
1351.00	369307.00
1352.00	372382.00
1353.00	373389.00
1354.00	376336.00
1355.00	380918.00
1356.00	384475.00
1357.00	391361.00
1358.00	397537.00
1359.00	407406.00
1360.00	419327.00
1361.00	433498.00
1362.00	450311.00
1363.00	469616.00
1364.00	492949.00
1365.00	518325.00
1366.00	546542.00
1367.00	579768.00
1368.00	612527.00
1369.00	648766.00
1370.00	685050.00
1371.00	726029.00
1372.00	764797.00
1373.00	800681.00
1374.00	834875.00
1375.00	866484.00
1376.00	892825.00
1377.00	914177.00
1378.00	926405.00
1379.00	935708.00
1380.00	935131.00
1381.00	924913.00
1382.00	911991.00
1383.00	892311.00
1384.00	863706.00
1385.00	831143.00
1386.00	796363.00
1387.00	758060.00
1388.00	716727.00
1389.00	677685.00
1390.00	635857.00
1391.00	599019.00
1392.00	562485.00
1393.00	530109.00
1394.00	499633.00
1395.00	473577.00
1396.00	451530.00
1397.00	431795.00
1398.00	415377.00
1399.00	401699.00
1400.00	389687.00
1401.00	381855.00
1402.00	373991.00
1403.00	369023.00
1404.00	366236.00
1405.00	361638.00
1406.00	360401.00
1407.00	357580.00
1408.00	356596.00
1409.00	356166.00
1410.00	354661.00
1411.00	354522.00
1412.00	353325.00
1413.00	353485.00
1414.00	354165.00
1415.00	353306.00
1416.00	352404.00
1417.00	352724.00
1418.00	352880.00
1419.00	352743.00
1420.00	353313.00
1421.00	352606.00
1422.00	352255.00
1423.00	352377.00
1424.00	352126.00
1425.00	352843.00
1426.00	351822.00
1427.00	351618.00
1428.00	351032.00
1429.00	353379.00
1430.00	352474.00
1431.00	353482.00
1432.00	352744.00
1433.00	352668.00
1434.00	353539.00
1435.00	353996.00
1436.00	354416.00
1437.00	354969.00
1438.00	355437.00
1439.00	356926.00
1440.00	356563.00
1441.00	359341.00
1442.00	359084.00
1443.00	359191.00
1444.00	361112.00
1445.00	363172.00
1446.00	364662.00
1447.00	365539.00
1448.00	367273.00
1449.00	369893.00
1450.00	370706.00
1451.00	373418.00
1452.00	374939.00
1453.00	376728.00
1454.00	378381.00
1455.00	379214.00
1456.00	379114.00
1457.00	379607.00
1458.00	380083.00
1459.00	379923.00
1460.00	379383.00
1461.00	380421.00
1462.00	378707.00
1463.00	377534.00
1464.00	376965.00
1465.00	375283.00
1466.00	373855.00
1467.00	370944.00
1468.00	373007.00
1469.00	369921.00
1470.00	368955.00
1471.00	367402.00
1472.00	366682.00
1473.00	366320.00
1474.00	364760.00
1475.00	364905.00
1476.00	364847.00
1477.00	364009.00
1478.00	364364.00
1479.00	364098.00
1480.00	364862.00
1481.00	364170.00
1482.00	364340.00
1483.00	365198.00
1484.00	365559.00
1485.00	364919.00
1486.00	365526.00
1487.00	366017.00
1488.00	368428.00
1489.00	367820.00
1490.00	367638.00
1491.00	367950.00
1492.00	368012.00
1493.00	369812.00
1494.00	369949.00
1495.00	369473.00
1496.00	370606.00
1497.00	370196.00
1498.00	371697.00
1499.00	373956.00
1500.00	372815.00
1501.00	374749.00
1502.00	374361.00
1503.00	376506.00
1504.00	377537.00
1505.00	378355.00
1506.00	378920.00
1507.00	381190.00
1508.00	381218.00
1509.00	381046.00
1510.00	383833.00
1511.00	384860.00
1512.00	386905.00
1513.00	390119.00
1514.00	392615.00
1515.00	395234.00
1516.00	397278.00
1517.00	401686.00
1518.00	406019.00
1519.00	410922.00
1520.00	417881.00
1521.00	421665.00
1522.00	430102.00
1523.00	437212.00
1524.00	444318.00
1525.00	451742.00
1526.00	460022.00
1527.00	470989.00
1528.00	480087.00
1529.00	491373.00
1530.00	502226.00
1531.00	513217.00
1532.00	523838.00
1533.00	534345.00
1534.00	543345.00
1535.00	553762.00
1536.00	563211.00
1537.00	570644.00
1538.00	577370.00
1539.00	582005.00
1540.00	587285.00
1541.00	590359.00
1542.00	591746.00
1543.00	590611.00
1544.00	590031.00
1545.00	585836.00
1546.00	582224.00
1547.00	578815.00
1548.00	573376.00
1549.00	566642.00
1550.00	562082.00
1551.00	555194.00
1552.00	549429.00
1553.00	545437.00
1554.00	540939.00
1555.00	539116.00
1556.00	535413.00
1557.00	536136.00
1558.00	537538.00
1559.00	538756.00
1560.00	544343.00
1561.00	547354.00
1562.00	553279.00
1563.00	559390.00
1564.00	568554.00
1565.00	577764.00
1566.00	586620.00
1567.00	597798.00
1568.00	610032.00
1569.00	622509.00
1570.00	635407.00
1571.00	650480.00
1572.00	666831.00
1573.00	681241.00
1574.00	699682.00
1575.00	715109.00
1576.00	735496.00
1577.00	754391.00
1578.00	772278.00
1579.00	794931.00
1580.00	817193.00
1581.00	838257.00
1582.00	863107.00
1583.00	886267.00
1584.00	913239.00
1585.00	935950.00
1586.00	961657.00
1587.00	989765.00
1588.00	1016007.00
1589.00	1040506.00
1590.00	1066065.00
1591.00	1090611.00
1592.00	1117841.00
1593.00	1142734.00
1594.00	1161662.00
1595.00	1187166.00
1596.00	1207274.00
1597.00	1227301.00
1598.00	1247160.00
1599.00	1266479.00
1600.00	1280588.00
1601.00	1294313.00
1602.00	1307063.00
1603.00	1319954.00
1604.00	1327474.00
1605.00	1332720.00
1606.00	1337520.00
1607.00	1340722.00
1608.00	1340041.00
1609.00	1339284.00
1610.00	1334627.00
1611.00	1331582.00
1612.00	1318322.00
1613.00	1311032.00
1614.00	1298940.00
1615.00	1288173.00
1616.00	1269309.00
1617.00	1252418.00
1618.00	1236810.00
1619.00	1218079.00
1620.00	1196137.00
1621.00	1172808.00
1622.00	1150900.00
1623.00	1127486.00
1624.00	1103410.00
1625.00	1078574.00
1626.00	1052239.00
1627.00	1029505.00
1628.00	1001403.00
1629.00	971663.00
1630.00	948898.00
1631.00	924912.00
1632.00	895577.00
1633.00	872481.00
1634.00	847686.00
1635.00	822188.00
1636.00	797920.00
1637.00	775551.00
1638.00	752696.00
1639.00	730289.00
1640.00	708566.00
1641.00	688603.00
1642.00	670086.00
1643.00	650290.00
1644.00	631914.00
1645.00	613990.00
1646.00	598362.00
1647.00	581817.00
1648.00	567435.00
1649.00	552080.00
1650.00	540300.00
1651.00	525393.00
1652.00	513872.00
1653.00	501855.00
1654.00	492225.00
1655.00	480701.00
1656.00	470989.00
1657.00	461620.00
1658.00	453565.00
1659.00	443597.00
1660.00	436813.00
1661.00	431421.00
1662.00	422324.00
1663.00	417597.00
1664.00	412714.00
1665.00	407019.00
1666.00	401866.00
1667.00	398854.00
1668.00	393785.00
1669.00	392630.00
1670.00	391257.00
1671.00	387973.00
1672.00	389721.00
1673.00	390349.00
1674.00	394021.00
1675.00	398037.00
1676.00	403924.00
1677.00	411810.00
1678.00	422734.00
1679.00	434758.00
1680.00	450425.00
1681.00	468188.00
1682.00	489343.00
1683.00	511175.00
1684.00	538963.00
1685.00	568411.00
1686.00	599921.00
1687.00	632410.00
1688.00	670490.00
1689.00	708574.00
1690.00	746795.00
1691.00	785753.00
1692.00	825069.00
1693.00	865543.00
1694.00	899695.00
1695.00	934707.00
1696.00	967143.00
1697.00	992842.00
1698.00	1013943.00
1699.00	1031905.00
1700.00	1046654.00
1701.00	1048510.00
1702.00	1049553.00
1703.00	1040434.00
1704.00	1025528.00
1705.00	1002708.00
1706.00	977213.00
1707.00	947149.00
1708.00	910263.00
1709.00	868990.00
1710.00	823829.00
1711.00	781933.00
1712.00	735471.00
1713.00	689104.00
1714.00	646404.00
1715.00	601514.00
1716.00	561925.00
1717.00	524071.00
1718.00	490615.00
1719.00	460186.00
1720.00	432424.00
1721.00	408901.00
1722.00	388040.00
1723.00	371884.00
1724.00	356640.00
1725.00	343210.00
1726.00	332746.00
1727.00	324782.00
1728.00	317565.00
1729.00	310786.00
1730.00	306757.00
1731.00	303825.00
1732.00	301664.00
1733.00	299331.00
1734.00	297690.00
1735.00	295902.00
1736.00	295261.00
1737.00	294510.00
1738.00	293804.00
1739.00	294384.00
1740.00	292528.00
1741.00	294127.00
1742.00	295562.00
1743.00	294292.00
1744.00	295872.00
1745.00	295823.00
1746.00	297059.00
1747.00	298610.00
1748.00	298325.00
1749.00	300695.00
1750.00	301181.00
1751.00	302744.00
1752.00	304985.00
1753.00	306510.00
1754.00	308580.00
1755.00	309944.00
1756.00	311098.00
1757.00	314661.00
1758.00	315123.00
1759.00	318286.00
1760.00	320053.00
1761.00	321957.00
1762.00	324513.00
1763.00	328279.00
1764.00	331868.00
1765.00	334975.00
1766.00	337833.00
1767.00	340530.00
1768.00	344296.00
1769.00	347424.00
1770.00	351377.00
1771.00	353930.00
1772.00	356995.00
1773.00	361885.00
1774.00	364467.00
1775.00	368382.00
1776.00	370641.00
1777.00	376253.00
1778.00	378525.00
1779.00	382198.00
1780.00	384902.00
1781.00	389155.00
1782.00	389390.00
1783.00	392107.00
1784.00	394973.00
1785.00	398594.00
1786.00	400685.00
1787.00	400870.00
1788.00	402186.00
1789.00	404254.00
1790.00	404274.00
1791.00	404196.00
1792.00	405511.00
1793.00	404644.00
1794.00	405440.00
1795.00	405938.00
1796.00	402962.00
1797.00	401990.00
1798.00	400699.00
1799.00	399857.00
1800.00	396940.00
1801.00	395446.00
1802.00	392848.00
1803.00	389867.00
1804.00	387533.00
1805.00	383694.00
1806.00	380561.00
1807.00	376324.00
1808.00	372782.00
1809.00	370191.00
1810.00	365189.00
1811.00	359533.00
1812.00	356586.00
1813.00	352152.00
1814.00	346709.00
1815.00	342173.00
1816.00	337341.00
1817.00	331180.00
1818.00	326902.00
1819.00	321990.00
1820.00	317606.00
1821.00	312204.00
1822.00	307367.00
1823.00	302368.00
1824.00	297445.00
1825.00	292446.00
1826.00	287112.00
1827.00	283606.00
1828.00	277857.00
1829.00	273054.00
1830.00	270152.00
1831.00	264520.00
1832.00	260776.00
1833.00	255650.00
1834.00	252306.00
1835.00	249854.00
1836.00	245121.00
1837.00	240615.00
1838.00	237137.00
1839.00	233260.00
1840.00	230312.00
1841.00	226425.00
1842.00	224373.00
1843.00	220763.00
1844.00	216873.00
1845.00	213614.00
1846.00	211152.00
1847.00	207670.00
1848.00	205189.00
1849.00	203057.00
1850.00	200252.00
1851.00	197446.00
1852.00	195251.00
1853.00	192499.00
1854.00	190413.00
1855.00	188014.00
1856.00	185134.00
1857.00	183435.00
1858.00	181074.00
1859.00	179149.00
1860.00	177323.00
1861.00	175344.00
1862.00	173525.00
1863.00	172151.00
1864.00	169698.00
1865.00	167602.00
1866.00	166959.00
1867.00	164739.00
1868.00	163344.00
1869.00	162847.00
1870.00	160773.00
1871.00	159775.00
1872.00	158671.00
1873.00	157911.00
1874.00	156258.00
1875.00	155557.00
1876.00	154813.00
1877.00	154418.00
1878.00	153443.00
1879.00	151647.00
1880.00	151632.00
1881.00	150861.00
1882.00	151435.00
1883.00	150149.00
1884.00	149547.00
1885.00	149975.00
1886.00	149832.00
1887.00	149561.00
1888.00	150121.00
1889.00	151054.00
1890.00	152994.00
1891.00	154276.00
1892.00	156620.00
1893.00	159323.00
1894.00	161419.00
1895.00	165164.00
1896.00	169375.00
1897.00	173373.00
1898.00	177873.00
1899.00	183119.00
1900.00	188649.00
1901.00	195034.00
1902.00	199568.00
1903.00	205667.00
1904.00	211839.00
1905.00	216899.00
1906.00	221253.00
1907.00	224866.00
1908.00	229878.00
1909.00	230566.00
1910.00	232352.00
1911.00	232578.00
1912.00	232790.00
1913.00	229951.00
1914.00	226973.00
1915.00	224167.00
1916.00	219796.00
1917.00	213066.00
1918.00	206754.00
1919.00	201964.00
1920.00	194518.00
1921.00	188179.00
1922.00	182636.00
1923.00	175280.00
1924.00	169574.00
1925.00	163931.00
1926.00	158855.00
1927.00	153611.00
1928.00	149877.00
1929.00	147019.00
1930.00	143563.00
1931.00	141293.00
1932.00	139464.00
1933.00	137620.00
1934.00	135821.00
1935.00	136395.00
1936.00	135040.00
1937.00	134542.00
1938.00	134502.00
1939.00	134528.00
1940.00	134517.00
1941.00	133811.00
1942.00	134231.00
1943.00	133468.00
1944.00	133005.00
1945.00	132799.00
1946.00	133012.00
1947.00	131872.00
1948.00	130073.00
1949.00	128979.00
1950.00	128521.00
1951.00	126580.00
1952.00	125494.00
1953.00	124332.00
1954.00	123001.00
1955.00	120905.00
1956.00	119177.00
1957.00	117814.00
1958.00	116493.00
1959.00	115909.00
1960.00	113216.00
1961.00	112492.00
1962.00	112069.00
1963.00	110525.00
1964.00	109885.00
1965.00	108294.00
1966.00	108379.00
1967.00	107169.00
1968.00	107379.00
1969.00	106696.00
1970.00	105992.00
1971.00	105858.00
1972.00	105646.00
1973.00	105458.00
1974.00	105537.00
1975.00	105130.00
1976.00	104664.00
1977.00	104432.00
1978.00	105457.00
1979.00	104248.00
1980.00	104188.00
1981.00	103920.00
1982.00	103606.00
1983.00	103720.00
1984.00	103671.00
1985.00	104250.00
1986.00	103935.00
1987.00	103289.00
1988.00	103926.00
1989.00	103376.00
1990.00	103310.00
1991.00	102742.00
1992.00	102318.00
1993.00	102131.00
1994.00	102668.00
1995.00	101893.00
1996.00	101861.00
1997.00	102989.00
1998.00	102311.00
1999.00	101549.00
2000.00	101876.00
2001.00	102655.00
2002.00	101269.00
2003.00	101519.00
2004.00	101362.00
2005.00	101100.00
2006.00	100570.00
2007.00	101497.00
2008.00	100890.00
2009.00	101096.00
2010.00	100566.00
2011.00	100949.00
2012.00	100225.00
2013.00	99898.00
2014.00	99925.00
2015.00	99759.00
2016.00	99291.00
2017.00	99463.00
2018.00	99686.00
2019.00	99659.00
2020.00	99709.00
2021.00	98618.00
2022.00	98495.00
2023.00	98460.00
2024.00	98800.00
2025.00	98654.00
2026.00	98609.00
2027.00	98566.00
2028.00	98193.00
2029.00	98318.00
2030.00	97796.00
2031.00	97918.00
2032.00	97489.00
2033.00	97516.00
2034.00	96986.00
2035.00	97147.00
2036.00	97097.00
2037.00	96534.00
2038.00	96646.00
2039.00	96999.00
2040.00	96397.00
2041.00	96431.00
2042.00	96079.00
2043.00	96386.00
2044.00	96473.00
2045.00	95827.00
2046.00	95587.00
2047.00	96097.00
2048.00	 0.00
