Date:	01/02/2022		
Time:	17:36		
Sample name:	JC36_74_4		
Position:	196.000018	mm	
Sample surface:	7.855705	cm	
Tube anode:	Mo		
Tube voltage:	30	kV	
Tube current:	30	mA	
Comments	not in position		
Gain	2.150000		
peaking_time	0.300000	m-sec	
trigger_threshold	40.000000	V	
mca_bin_width	2.000000	no:	
number_mca_channels	2048.000000	no:	
gap_time	0.100000	m-sec	
trigger_peaking_time	0.050000	m-sec	
livetime	12.404014	seconds	
runtime	15.000282	seconds	
input_count_rate	84311.414115	cps	
output_count_rate	69718.689289	cps	
triggers	1219789.000000	seconds	
events_in_run	1002479.000000	seconds	
channel	content		
 1.00	 0.00
 2.00	 0.00
 3.00	 0.00
 4.00	 0.00
 5.00	 0.00
 6.00	 0.00
 7.00	 0.00
 8.00	 0.00
 9.00	 0.00
10.00	 0.00
11.00	 0.00
12.00	 0.00
13.00	 0.00
14.00	 0.00
15.00	 0.00
16.00	 0.00
17.00	 0.00
18.00	 0.00
19.00	 0.00
20.00	 0.00
21.00	 0.00
22.00	 0.00
23.00	 0.00
24.00	 0.00
25.00	 0.00
26.00	 0.00
27.00	 0.00
28.00	 0.00
29.00	 0.00
30.00	 0.00
31.00	64.00
32.00	54.00
33.00	49.00
34.00	37.00
35.00	53.00
36.00	48.00
37.00	54.00
38.00	38.00
39.00	42.00
40.00	52.00
41.00	43.00
42.00	38.00
43.00	55.00
44.00	48.00
45.00	50.00
46.00	53.00
47.00	61.00
48.00	80.00
49.00	92.00
50.00	102.00
51.00	156.00
52.00	274.00
53.00	308.00
54.00	395.00
55.00	592.00
56.00	789.00
57.00	1072.00
58.00	1467.00
59.00	2118.00
60.00	2703.00
61.00	3143.00
62.00	3465.00
63.00	3498.00
64.00	3547.00
65.00	3460.00
66.00	3214.00
67.00	3259.00
68.00	3016.00
69.00	3104.00
70.00	2991.00
71.00	2858.00
72.00	2883.00
73.00	2954.00
74.00	2980.00
75.00	2971.00
76.00	2857.00
77.00	2813.00
78.00	2950.00
79.00	2804.00
80.00	2888.00
81.00	2822.00
82.00	2782.00
83.00	2920.00
84.00	2922.00
85.00	2854.00
86.00	2919.00
87.00	2788.00
88.00	2818.00
89.00	2685.00
90.00	2697.00
91.00	2657.00
92.00	2693.00
93.00	2587.00
94.00	2510.00
95.00	2445.00
96.00	2500.00
97.00	2444.00
98.00	2417.00
99.00	2382.00
100.00	2387.00
101.00	2353.00
102.00	2393.00
103.00	2315.00
104.00	2291.00
105.00	2156.00
106.00	2197.00
107.00	2178.00
108.00	2120.00
109.00	2109.00
110.00	2181.00
111.00	2071.00
112.00	1991.00
113.00	2070.00
114.00	2046.00
115.00	2007.00
116.00	1976.00
117.00	1898.00
118.00	1911.00
119.00	1920.00
120.00	1901.00
121.00	1900.00
122.00	1845.00
123.00	1770.00
124.00	1838.00
125.00	1740.00
126.00	1748.00
127.00	1756.00
128.00	1805.00
129.00	1681.00
130.00	1654.00
131.00	1692.00
132.00	1615.00
133.00	1683.00
134.00	1625.00
135.00	1627.00
136.00	1617.00
137.00	1561.00
138.00	1629.00
139.00	1635.00
140.00	1778.00
141.00	1881.00
142.00	1967.00
143.00	2108.00
144.00	2163.00
145.00	2345.00
146.00	2240.00
147.00	2188.00
148.00	2196.00
149.00	1957.00
150.00	1961.00
151.00	1939.00
152.00	1857.00
153.00	1818.00
154.00	1814.00
155.00	1781.00
156.00	1629.00
157.00	1684.00
158.00	1527.00
159.00	1590.00
160.00	1647.00
161.00	1998.00
162.00	2468.00
163.00	3435.00
164.00	5067.00
165.00	7109.00
166.00	9890.00
167.00	13219.00
168.00	16306.00
169.00	18871.00
170.00	20616.00
171.00	20822.00
172.00	19473.00
173.00	17343.00
174.00	14371.00
175.00	11458.00
176.00	8456.00
177.00	6357.00
178.00	4847.00
179.00	3960.00
180.00	3331.00
181.00	3101.00
182.00	3040.00
183.00	3169.00
184.00	3331.00
185.00	4091.00
186.00	4710.00
187.00	5686.00
188.00	6763.00
189.00	7958.00
190.00	8282.00
191.00	8654.00
192.00	8420.00
193.00	7679.00
194.00	6513.00
195.00	5351.00
196.00	4277.00
197.00	3272.00
198.00	2437.00
199.00	2010.00
200.00	1617.00
201.00	1379.00
202.00	1243.00
203.00	1194.00
204.00	1103.00
205.00	1107.00
206.00	1131.00
207.00	1086.00
208.00	1088.00
209.00	1126.00
210.00	1141.00
211.00	1099.00
212.00	1166.00
213.00	1173.00
214.00	1227.00
215.00	1290.00
216.00	1360.00
217.00	1501.00
218.00	1610.00
219.00	1798.00
220.00	1854.00
221.00	2089.00
222.00	2280.00
223.00	2361.00
224.00	2352.00
225.00	2271.00
226.00	2180.00
227.00	2045.00
228.00	1828.00
229.00	1667.00
230.00	1505.00
231.00	1316.00
232.00	1189.00
233.00	1119.00
234.00	1057.00
235.00	992.00
236.00	974.00
237.00	950.00
238.00	945.00
239.00	946.00
240.00	931.00
241.00	941.00
242.00	987.00
243.00	1001.00
244.00	1072.00
245.00	1134.00
246.00	1395.00
247.00	1609.00
248.00	2164.00
249.00	2812.00
250.00	3736.00
251.00	5157.00
252.00	6624.00
253.00	8194.00
254.00	9870.00
255.00	11231.00
256.00	12361.00
257.00	12585.00
258.00	12410.00
259.00	11174.00
260.00	9894.00
261.00	8271.00
262.00	6558.00
263.00	4945.00
264.00	3726.00
265.00	2751.00
266.00	2141.00
267.00	1689.00
268.00	1510.00
269.00	1451.00
270.00	1517.00
271.00	1664.00
272.00	1756.00
273.00	1929.00
274.00	2082.00
275.00	2094.00
276.00	2188.00
277.00	2174.00
278.00	2152.00
279.00	2070.00
280.00	2020.00
281.00	2102.00
282.00	2315.00
283.00	2688.00
284.00	3011.00
285.00	3673.00
286.00	4372.00
287.00	4963.00
288.00	5432.00
289.00	5978.00
290.00	5877.00
291.00	5566.00
292.00	5236.00
293.00	4730.00
294.00	3947.00
295.00	3244.00
296.00	2694.00
297.00	2062.00
298.00	1744.00
299.00	1481.00
300.00	1237.00
301.00	1161.00
302.00	1136.00
303.00	1143.00
304.00	1179.00
305.00	1251.00
306.00	1317.00
307.00	1493.00
308.00	1503.00
309.00	1642.00
310.00	1858.00
311.00	1989.00
312.00	2313.00
313.00	2724.00
314.00	3385.00
315.00	4413.00
316.00	5776.00
317.00	7985.00
318.00	10257.00
319.00	13360.00
320.00	16737.00
321.00	20626.00
322.00	23387.00
323.00	26003.00
324.00	27250.00
325.00	27210.00
326.00	25947.00
327.00	23437.00
328.00	20468.00
329.00	16811.00
330.00	13317.00
331.00	10046.00
332.00	7537.00
333.00	5372.00
334.00	3808.00
335.00	2889.00
336.00	2151.00
337.00	1873.00
338.00	1723.00
339.00	1792.00
340.00	1948.00
341.00	2382.00
342.00	2898.00
343.00	3467.00
344.00	4563.00
345.00	6152.00
346.00	8596.00
347.00	12666.00
348.00	18282.00
349.00	27522.00
350.00	41928.00
351.00	63514.00
352.00	94320.00
353.00	136550.00
354.00	192990.00
355.00	260642.00
356.00	339604.00
357.00	424086.00
358.00	505179.00
359.00	574193.00
360.00	626143.00
361.00	650059.00
362.00	643916.00
363.00	610191.00
364.00	552112.00
365.00	473629.00
366.00	389079.00
367.00	306371.00
368.00	230457.00
369.00	164644.00
370.00	113237.00
371.00	74329.00
372.00	47201.00
373.00	29383.00
374.00	18372.00
375.00	11126.00
376.00	7888.00
377.00	6124.00
378.00	5738.00
379.00	6413.00
380.00	7347.00
381.00	9497.00
382.00	12590.00
383.00	16692.00
384.00	22444.00
385.00	29823.00
386.00	38539.00
387.00	49141.00
388.00	60199.00
389.00	71217.00
390.00	81240.00
391.00	89252.00
392.00	94023.00
393.00	95102.00
394.00	92058.00
395.00	85493.00
396.00	76242.00
397.00	64800.00
398.00	52150.00
399.00	41673.00
400.00	31572.00
401.00	22844.00
402.00	15631.00
403.00	10556.00
404.00	6911.00
405.00	4544.00
406.00	2955.00
407.00	1919.00
408.00	1295.00
409.00	948.00
410.00	785.00
411.00	671.00
412.00	642.00
413.00	643.00
414.00	622.00
415.00	674.00
416.00	630.00
417.00	664.00
418.00	646.00
419.00	707.00
420.00	686.00
421.00	689.00
422.00	788.00
423.00	716.00
424.00	774.00
425.00	858.00
426.00	939.00
427.00	1056.00
428.00	1221.00
429.00	1448.00
430.00	1881.00
431.00	2339.00
432.00	3080.00
433.00	3854.00
434.00	4799.00
435.00	6049.00
436.00	7318.00
437.00	8712.00
438.00	9806.00
439.00	10619.00
440.00	11294.00
441.00	10991.00
442.00	10892.00
443.00	10420.00
444.00	9433.00
445.00	8313.00
446.00	7216.00
447.00	5987.00
448.00	4902.00
449.00	4263.00
450.00	3269.00
451.00	2763.00
452.00	2522.00
453.00	2257.00
454.00	2092.00
455.00	2006.00
456.00	1962.00
457.00	1886.00
458.00	1688.00
459.00	1578.00
460.00	1494.00
461.00	1416.00
462.00	1324.00
463.00	1316.00
464.00	1389.00
465.00	1363.00
466.00	1464.00
467.00	1389.00
468.00	1539.00
469.00	1694.00
470.00	1863.00
471.00	2015.00
472.00	2214.00
473.00	2352.00
474.00	2488.00
475.00	2587.00
476.00	2788.00
477.00	3150.00
478.00	3224.00
479.00	3373.00
480.00	3495.00
481.00	3582.00
482.00	3489.00
483.00	3490.00
484.00	3452.00
485.00	3196.00
486.00	3054.00
487.00	2750.00
488.00	2467.00
489.00	2155.00
490.00	1991.00
491.00	1726.00
492.00	1528.00
493.00	1405.00
494.00	1264.00
495.00	1237.00
496.00	1209.00
497.00	1189.00
498.00	1191.00
499.00	1146.00
500.00	1275.00
501.00	1235.00
502.00	1280.00
503.00	1263.00
504.00	1384.00
505.00	1431.00
506.00	1422.00
507.00	1520.00
508.00	1641.00
509.00	1649.00
510.00	1702.00
511.00	1771.00
512.00	1844.00
513.00	1965.00
514.00	2055.00
515.00	2083.00
516.00	2153.00
517.00	2259.00
518.00	2338.00
519.00	2602.00
520.00	2824.00
521.00	3126.00
522.00	3320.00
523.00	3578.00
524.00	3755.00
525.00	4158.00
526.00	4471.00
527.00	4685.00
528.00	4757.00
529.00	4720.00
530.00	4755.00
531.00	4498.00
532.00	4419.00
533.00	3935.00
534.00	3763.00
535.00	3548.00
536.00	3150.00
537.00	3037.00
538.00	2882.00
539.00	2769.00
540.00	2559.00
541.00	2462.00
542.00	2416.00
543.00	2454.00
544.00	2480.00
545.00	2613.00
546.00	2518.00
547.00	2587.00
548.00	2586.00
549.00	2682.00
550.00	2732.00
551.00	2822.00
552.00	2754.00
553.00	2705.00
554.00	2903.00
555.00	2890.00
556.00	2912.00
557.00	2997.00
558.00	2965.00
559.00	3018.00
560.00	3143.00
561.00	3150.00
562.00	3222.00
563.00	3169.00
564.00	3428.00
565.00	3575.00
566.00	3786.00
567.00	3997.00
568.00	4244.00
569.00	4471.00
570.00	5080.00
571.00	5333.00
572.00	5795.00
573.00	6185.00
574.00	6514.00
575.00	6644.00
576.00	6736.00
577.00	6779.00
578.00	6468.00
579.00	6224.00
580.00	5804.00
581.00	5441.00
582.00	4901.00
583.00	4523.00
584.00	3944.00
585.00	3620.00
586.00	3335.00
587.00	3040.00
588.00	2845.00
589.00	2707.00
590.00	2563.00
591.00	2464.00
592.00	2511.00
593.00	2582.00
594.00	2704.00
595.00	2733.00
596.00	2702.00
597.00	2940.00
598.00	2944.00
599.00	3081.00
600.00	3152.00
601.00	3242.00
602.00	3499.00
603.00	3690.00
604.00	3948.00
605.00	4396.00
606.00	4951.00
607.00	5934.00
608.00	7397.00
609.00	9646.00
610.00	12742.00
611.00	17480.00
612.00	24053.00
613.00	32747.00
614.00	44854.00
615.00	59575.00
616.00	77798.00
617.00	98997.00
618.00	124555.00
619.00	150871.00
620.00	179260.00
621.00	204149.00
622.00	229162.00
623.00	248050.00
624.00	260872.00
625.00	267095.00
626.00	265803.00
627.00	255474.00
628.00	238997.00
629.00	217695.00
630.00	191728.00
631.00	163974.00
632.00	136186.00
633.00	110808.00
634.00	87656.00
635.00	67373.00
636.00	51170.00
637.00	37858.00
638.00	27741.00
639.00	20357.00
640.00	15004.00
641.00	11407.00
642.00	8918.00
643.00	7122.00
644.00	6044.00
645.00	5396.00
646.00	5095.00
647.00	4894.00
648.00	4738.00
649.00	4698.00
650.00	4563.00
651.00	4579.00
652.00	4501.00
653.00	4562.00
654.00	4683.00
655.00	4607.00
656.00	4797.00
657.00	4883.00
658.00	4874.00
659.00	4923.00
660.00	4903.00
661.00	5104.00
662.00	5156.00
663.00	5217.00
664.00	5339.00
665.00	5520.00
666.00	5659.00
667.00	5929.00
668.00	6120.00
669.00	6233.00
670.00	6399.00
671.00	6780.00
672.00	7086.00
673.00	7861.00
674.00	8517.00
675.00	9489.00
676.00	10763.00
677.00	12265.00
678.00	14388.00
679.00	16955.00
680.00	20150.00
681.00	23634.00
682.00	26932.00
683.00	31114.00
684.00	35151.00
685.00	38821.00
686.00	42148.00
687.00	44623.00
688.00	46252.00
689.00	46925.00
690.00	46110.00
691.00	44567.00
692.00	42240.00
693.00	38947.00
694.00	34686.00
695.00	30786.00
696.00	27283.00
697.00	22979.00
698.00	19502.00
699.00	16223.00
700.00	13798.00
701.00	11318.00
702.00	9912.00
703.00	8684.00
704.00	7788.00
705.00	6982.00
706.00	6680.00
707.00	6463.00
708.00	6292.00
709.00	6277.00
710.00	6380.00
711.00	6498.00
712.00	6607.00
713.00	6860.00
714.00	6901.00
715.00	7133.00
716.00	7140.00
717.00	7337.00
718.00	7638.00
719.00	7823.00
720.00	8145.00
721.00	8403.00
722.00	8583.00
723.00	8892.00
724.00	9021.00
725.00	9174.00
726.00	9372.00
727.00	9465.00
728.00	9441.00
729.00	9545.00
730.00	9573.00
731.00	9496.00
732.00	9071.00
733.00	8874.00
734.00	8742.00
735.00	8504.00
736.00	8373.00
737.00	7877.00
738.00	7612.00
739.00	7562.00
740.00	7335.00
741.00	7232.00
742.00	7016.00
743.00	6901.00
744.00	6841.00
745.00	6965.00
746.00	6619.00
747.00	6850.00
748.00	6628.00
749.00	6673.00
750.00	6604.00
751.00	6771.00
752.00	6689.00
753.00	6779.00
754.00	6599.00
755.00	6649.00
756.00	6612.00
757.00	6681.00
758.00	6685.00
759.00	6726.00
760.00	6764.00
761.00	6762.00
762.00	6806.00
763.00	6706.00
764.00	6912.00
765.00	7084.00
766.00	7095.00
767.00	7039.00
768.00	7110.00
769.00	7248.00
770.00	7544.00
771.00	7665.00
772.00	7722.00
773.00	7935.00
774.00	8069.00
775.00	8425.00
776.00	8881.00
777.00	9065.00
778.00	8986.00
779.00	9556.00
780.00	9890.00
781.00	10270.00
782.00	10499.00
783.00	11065.00
784.00	11384.00
785.00	11709.00
786.00	12076.00
787.00	12181.00
788.00	12662.00
789.00	12939.00
790.00	12975.00
791.00	13463.00
792.00	13517.00
793.00	13903.00
794.00	13994.00
795.00	14297.00
796.00	14255.00
797.00	14572.00
798.00	14976.00
799.00	14967.00
800.00	15143.00
801.00	15371.00
802.00	15653.00
803.00	15691.00
804.00	16290.00
805.00	16527.00
806.00	16705.00
807.00	17413.00
808.00	18243.00
809.00	18797.00
810.00	19898.00
811.00	21170.00
812.00	22486.00
813.00	23656.00
814.00	25012.00
815.00	26151.00
816.00	26920.00
817.00	27850.00
818.00	28590.00
819.00	29137.00
820.00	29129.00
821.00	28348.00
822.00	27485.00
823.00	26544.00
824.00	25300.00
825.00	23791.00
826.00	22195.00
827.00	20695.00
828.00	19207.00
829.00	18068.00
830.00	16825.00
831.00	15715.00
832.00	14790.00
833.00	14379.00
834.00	13769.00
835.00	13556.00
836.00	13432.00
837.00	13227.00
838.00	13267.00
839.00	13237.00
840.00	13129.00
841.00	13106.00
842.00	13135.00
843.00	13070.00
844.00	13096.00
845.00	13081.00
846.00	12917.00
847.00	13112.00
848.00	12912.00
849.00	12993.00
850.00	12827.00
851.00	12950.00
852.00	12793.00
853.00	12563.00
854.00	12518.00
855.00	12646.00
856.00	12537.00
857.00	12823.00
858.00	12620.00
859.00	12721.00
860.00	12533.00
861.00	12554.00
862.00	12821.00
863.00	12787.00
864.00	12947.00
865.00	12686.00
866.00	12909.00
867.00	12716.00
868.00	13106.00
869.00	12811.00
870.00	12995.00
871.00	12888.00
872.00	13062.00
873.00	13133.00
874.00	12896.00
875.00	13287.00
876.00	13290.00
877.00	13107.00
878.00	13299.00
879.00	13008.00
880.00	13344.00
881.00	13534.00
882.00	13450.00
883.00	13645.00
884.00	13931.00
885.00	13870.00
886.00	13905.00
887.00	13931.00
888.00	14050.00
889.00	14397.00
890.00	14751.00
891.00	14922.00
892.00	14873.00
893.00	15044.00
894.00	15269.00
895.00	15407.00
896.00	15485.00
897.00	16021.00
898.00	16069.00
899.00	16450.00
900.00	16346.00
901.00	16909.00
902.00	17236.00
903.00	17402.00
904.00	17471.00
905.00	17877.00
906.00	17662.00
907.00	18029.00
908.00	18173.00
909.00	18382.00
910.00	18373.00
911.00	18434.00
912.00	18940.00
913.00	18907.00
914.00	19161.00
915.00	19011.00
916.00	18993.00
917.00	19405.00
918.00	19534.00
919.00	19456.00
920.00	19431.00
921.00	19703.00
922.00	19800.00
923.00	19957.00
924.00	20209.00
925.00	20324.00
926.00	20642.00
927.00	20626.00
928.00	20972.00
929.00	20971.00
930.00	21603.00
931.00	21348.00
932.00	21799.00
933.00	22066.00
934.00	22898.00
935.00	23396.00
936.00	24259.00
937.00	24960.00
938.00	25149.00
939.00	25742.00
940.00	26294.00
941.00	26689.00
942.00	26769.00
943.00	26684.00
944.00	27245.00
945.00	26782.00
946.00	26531.00
947.00	26471.00
948.00	25698.00
949.00	25135.00
950.00	24603.00
951.00	23769.00
952.00	23278.00
953.00	22530.00
954.00	22092.00
955.00	21653.00
956.00	21141.00
957.00	20880.00
958.00	20451.00
959.00	20340.00
960.00	20009.00
961.00	19959.00
962.00	20006.00
963.00	19816.00
964.00	20062.00
965.00	20030.00
966.00	20207.00
967.00	20286.00
968.00	20301.00
969.00	20514.00
970.00	20375.00
971.00	20784.00
972.00	20485.00
973.00	20481.00
974.00	20565.00
975.00	20023.00
976.00	20074.00
977.00	19385.00
978.00	19665.00
979.00	19492.00
980.00	19129.00
981.00	18733.00
982.00	18793.00
983.00	18378.00
984.00	18213.00
985.00	18068.00
986.00	18060.00
987.00	18000.00
988.00	17761.00
989.00	17865.00
990.00	17559.00
991.00	17761.00
992.00	17580.00
993.00	17337.00
994.00	17477.00
995.00	17336.00
996.00	17476.00
997.00	17477.00
998.00	17314.00
999.00	17061.00
1000.00	17392.00
1001.00	17192.00
1002.00	17233.00
1003.00	17561.00
1004.00	17477.00
1005.00	17487.00
1006.00	17131.00
1007.00	17192.00
1008.00	17394.00
1009.00	17310.00
1010.00	17080.00
1011.00	17167.00
1012.00	17361.00
1013.00	17290.00
1014.00	17361.00
1015.00	17482.00
1016.00	17716.00
1017.00	17386.00
1018.00	17615.00
1019.00	17410.00
1020.00	17636.00
1021.00	17645.00
1022.00	17670.00
1023.00	17941.00
1024.00	18086.00
1025.00	17792.00
1026.00	17992.00
1027.00	18183.00
1028.00	18113.00
1029.00	18307.00
1030.00	18152.00
1031.00	18243.00
1032.00	18028.00
1033.00	18281.00
1034.00	18162.00
1035.00	17779.00
1036.00	18225.00
1037.00	17951.00
1038.00	18100.00
1039.00	18241.00
1040.00	18033.00
1041.00	18008.00
1042.00	17871.00
1043.00	17789.00
1044.00	18244.00
1045.00	18200.00
1046.00	18290.00
1047.00	18222.00
1048.00	18310.00
1049.00	18335.00
1050.00	18157.00
1051.00	18480.00
1052.00	18848.00
1053.00	18590.00
1054.00	18665.00
1055.00	18921.00
1056.00	19074.00
1057.00	18842.00
1058.00	18999.00
1059.00	19120.00
1060.00	18978.00
1061.00	19115.00
1062.00	19079.00
1063.00	19478.00
1064.00	19225.00
1065.00	19286.00
1066.00	19310.00
1067.00	19403.00
1068.00	19480.00
1069.00	19527.00
1070.00	19376.00
1071.00	19564.00
1072.00	19334.00
1073.00	19408.00
1074.00	19658.00
1075.00	19850.00
1076.00	19658.00
1077.00	19706.00
1078.00	19754.00
1079.00	19581.00
1080.00	19745.00
1081.00	19364.00
1082.00	19800.00
1083.00	19658.00
1084.00	19752.00
1085.00	20081.00
1086.00	20224.00
1087.00	20163.00
1088.00	19968.00
1089.00	20372.00
1090.00	20232.00
1091.00	20416.00
1092.00	20573.00
1093.00	20796.00
1094.00	20640.00
1095.00	20962.00
1096.00	20980.00
1097.00	21145.00
1098.00	21206.00
1099.00	21227.00
1100.00	21483.00
1101.00	21426.00
1102.00	21456.00
1103.00	21311.00
1104.00	21278.00
1105.00	21430.00
1106.00	21090.00
1107.00	21322.00
1108.00	20860.00
1109.00	21238.00
1110.00	20958.00
1111.00	20985.00
1112.00	21107.00
1113.00	21185.00
1114.00	20765.00
1115.00	20555.00
1116.00	20682.00
1117.00	20890.00
1118.00	20866.00
1119.00	20828.00
1120.00	21022.00
1121.00	21081.00
1122.00	20594.00
1123.00	20797.00
1124.00	21025.00
1125.00	20980.00
1126.00	20814.00
1127.00	20827.00
1128.00	21136.00
1129.00	21219.00
1130.00	21029.00
1131.00	21040.00
1132.00	21060.00
1133.00	21166.00
1134.00	21019.00
1135.00	21290.00
1136.00	21102.00
1137.00	21135.00
1138.00	20954.00
1139.00	21339.00
1140.00	21131.00
1141.00	21199.00
1142.00	21125.00
1143.00	21193.00
1144.00	21133.00
1145.00	21402.00
1146.00	21283.00
1147.00	21382.00
1148.00	21761.00
1149.00	21663.00
1150.00	21692.00
1151.00	21965.00
1152.00	22093.00
1153.00	22503.00
1154.00	22656.00
1155.00	23065.00
1156.00	23145.00
1157.00	23219.00
1158.00	23310.00
1159.00	23863.00
1160.00	23959.00
1161.00	24063.00
1162.00	23973.00
1163.00	23901.00
1164.00	24018.00
1165.00	23479.00
1166.00	23663.00
1167.00	23213.00
1168.00	23063.00
1169.00	22981.00
1170.00	22796.00
1171.00	22346.00
1172.00	21936.00
1173.00	22041.00
1174.00	22104.00
1175.00	21851.00
1176.00	21223.00
1177.00	21337.00
1178.00	21336.00
1179.00	21389.00
1180.00	21152.00
1181.00	21095.00
1182.00	20994.00
1183.00	21045.00
1184.00	21100.00
1185.00	21148.00
1186.00	20985.00
1187.00	20901.00
1188.00	21064.00
1189.00	21083.00
1190.00	21315.00
1191.00	21038.00
1192.00	21129.00
1193.00	20569.00
1194.00	20935.00
1195.00	21104.00
1196.00	21204.00
1197.00	21309.00
1198.00	21307.00
1199.00	21098.00
1200.00	21285.00
1201.00	21354.00
1202.00	21205.00
1203.00	21424.00
1204.00	21306.00
1205.00	21594.00
1206.00	21640.00
1207.00	21515.00
1208.00	21501.00
1209.00	21814.00
1210.00	21720.00
1211.00	21554.00
1212.00	21519.00
1213.00	21697.00
1214.00	22124.00
1215.00	21738.00
1216.00	21751.00
1217.00	21801.00
1218.00	21935.00
1219.00	22249.00
1220.00	22274.00
1221.00	22055.00
1222.00	22178.00
1223.00	22171.00
1224.00	22143.00
1225.00	22046.00
1226.00	22456.00
1227.00	22487.00
1228.00	22246.00
1229.00	22391.00
1230.00	22224.00
1231.00	22255.00
1232.00	22591.00
1233.00	22536.00
1234.00	22558.00
1235.00	22413.00
1236.00	22451.00
1237.00	22657.00
1238.00	22360.00
1239.00	22561.00
1240.00	22368.00
1241.00	22628.00
1242.00	22498.00
1243.00	22686.00
1244.00	22684.00
1245.00	22402.00
1246.00	22615.00
1247.00	22463.00
1248.00	22657.00
1249.00	22530.00
1250.00	22536.00
1251.00	22573.00
1252.00	22766.00
1253.00	22613.00
1254.00	22744.00
1255.00	22458.00
1256.00	22775.00
1257.00	22788.00
1258.00	22960.00
1259.00	22461.00
1260.00	22792.00
1261.00	22713.00
1262.00	22962.00
1263.00	22663.00
1264.00	22858.00
1265.00	22897.00
1266.00	22855.00
1267.00	22890.00
1268.00	22778.00
1269.00	22874.00
1270.00	22896.00
1271.00	22994.00
1272.00	22701.00
1273.00	23168.00
1274.00	22919.00
1275.00	22898.00
1276.00	22725.00
1277.00	23030.00
1278.00	22842.00
1279.00	23111.00
1280.00	23152.00
1281.00	23160.00
1282.00	23308.00
1283.00	23276.00
1284.00	23525.00
1285.00	23576.00
1286.00	23453.00
1287.00	23927.00
1288.00	24057.00
1289.00	24298.00
1290.00	24197.00
1291.00	24709.00
1292.00	24702.00
1293.00	25128.00
1294.00	25583.00
1295.00	25673.00
1296.00	25901.00
1297.00	26260.00
1298.00	26611.00
1299.00	26689.00
1300.00	26784.00
1301.00	26903.00
1302.00	27376.00
1303.00	27149.00
1304.00	27712.00
1305.00	27302.00
1306.00	27220.00
1307.00	27143.00
1308.00	27164.00
1309.00	27015.00
1310.00	26592.00
1311.00	26357.00
1312.00	25987.00
1313.00	25775.00
1314.00	25448.00
1315.00	25240.00
1316.00	25073.00
1317.00	24892.00
1318.00	24602.00
1319.00	24376.00
1320.00	24313.00
1321.00	24038.00
1322.00	24146.00
1323.00	23917.00
1324.00	24050.00
1325.00	23917.00
1326.00	23673.00
1327.00	23691.00
1328.00	23725.00
1329.00	23904.00
1330.00	23718.00
1331.00	23792.00
1332.00	23767.00
1333.00	23548.00
1334.00	23794.00
1335.00	23639.00
1336.00	23718.00
1337.00	23535.00
1338.00	23651.00
1339.00	23698.00
1340.00	23800.00
1341.00	23822.00
1342.00	23954.00
1343.00	23943.00
1344.00	23842.00
1345.00	23898.00
1346.00	23891.00
1347.00	24135.00
1348.00	24015.00
1349.00	24158.00
1350.00	23971.00
1351.00	24340.00
1352.00	24149.00
1353.00	24620.00
1354.00	24555.00
1355.00	24445.00
1356.00	25178.00
1357.00	25438.00
1358.00	26192.00
1359.00	26634.00
1360.00	27465.00
1361.00	28038.00
1362.00	29470.00
1363.00	30404.00
1364.00	31868.00
1365.00	33259.00
1366.00	34887.00
1367.00	37325.00
1368.00	39585.00
1369.00	41403.00
1370.00	43923.00
1371.00	46423.00
1372.00	48914.00
1373.00	50878.00
1374.00	53158.00
1375.00	54731.00
1376.00	56705.00
1377.00	58305.00
1378.00	59108.00
1379.00	59441.00
1380.00	58924.00
1381.00	59069.00
1382.00	57654.00
1383.00	57012.00
1384.00	54785.00
1385.00	53122.00
1386.00	50505.00
1387.00	48258.00
1388.00	45743.00
1389.00	43400.00
1390.00	41074.00
1391.00	38165.00
1392.00	36072.00
1393.00	33819.00
1394.00	32132.00
1395.00	30611.00
1396.00	29078.00
1397.00	27710.00
1398.00	26993.00
1399.00	26108.00
1400.00	25456.00
1401.00	24846.00
1402.00	24036.00
1403.00	24015.00
1404.00	23859.00
1405.00	23987.00
1406.00	23353.00
1407.00	23353.00
1408.00	23415.00
1409.00	23078.00
1410.00	23017.00
1411.00	23136.00
1412.00	23088.00
1413.00	22886.00
1414.00	23227.00
1415.00	22975.00
1416.00	23026.00
1417.00	23130.00
1418.00	22724.00
1419.00	23092.00
1420.00	22679.00
1421.00	22787.00
1422.00	23313.00
1423.00	23147.00
1424.00	23030.00
1425.00	22758.00
1426.00	22929.00
1427.00	23066.00
1428.00	22844.00
1429.00	22994.00
1430.00	22938.00
1431.00	23205.00
1432.00	22836.00
1433.00	23092.00
1434.00	22783.00
1435.00	23034.00
1436.00	22900.00
1437.00	23268.00
1438.00	22871.00
1439.00	22964.00
1440.00	22933.00
1441.00	23162.00
1442.00	23135.00
1443.00	23478.00
1444.00	23398.00
1445.00	23513.00
1446.00	23520.00
1447.00	23869.00
1448.00	23608.00
1449.00	23881.00
1450.00	24036.00
1451.00	23869.00
1452.00	24150.00
1453.00	24361.00
1454.00	24333.00
1455.00	24334.00
1456.00	24267.00
1457.00	24479.00
1458.00	24106.00
1459.00	24545.00
1460.00	24540.00
1461.00	24458.00
1462.00	24318.00
1463.00	24310.00
1464.00	24280.00
1465.00	24100.00
1466.00	24265.00
1467.00	23952.00
1468.00	24183.00
1469.00	24021.00
1470.00	24037.00
1471.00	23987.00
1472.00	24145.00
1473.00	23807.00
1474.00	24034.00
1475.00	23822.00
1476.00	23780.00
1477.00	23741.00
1478.00	23539.00
1479.00	23917.00
1480.00	23797.00
1481.00	23919.00
1482.00	23719.00
1483.00	23789.00
1484.00	23828.00
1485.00	23755.00
1486.00	23902.00
1487.00	24161.00
1488.00	23923.00
1489.00	23992.00
1490.00	24386.00
1491.00	23992.00
1492.00	24102.00
1493.00	24108.00
1494.00	24235.00
1495.00	24257.00
1496.00	24450.00
1497.00	24038.00
1498.00	24360.00
1499.00	24052.00
1500.00	24495.00
1501.00	24569.00
1502.00	24502.00
1503.00	24653.00
1504.00	24690.00
1505.00	24790.00
1506.00	24582.00
1507.00	24817.00
1508.00	24852.00
1509.00	25032.00
1510.00	25144.00
1511.00	25052.00
1512.00	25509.00
1513.00	25570.00
1514.00	25510.00
1515.00	25959.00
1516.00	25867.00
1517.00	25982.00
1518.00	26689.00
1519.00	26926.00
1520.00	27322.00
1521.00	27239.00
1522.00	28074.00
1523.00	28633.00
1524.00	29193.00
1525.00	29269.00
1526.00	30307.00
1527.00	30996.00
1528.00	31008.00
1529.00	31942.00
1530.00	32759.00
1531.00	33365.00
1532.00	33948.00
1533.00	34568.00
1534.00	35509.00
1535.00	35728.00
1536.00	36223.00
1537.00	36992.00
1538.00	37308.00
1539.00	37901.00
1540.00	38057.00
1541.00	38382.00
1542.00	38615.00
1543.00	38119.00
1544.00	38254.00
1545.00	38100.00
1546.00	37557.00
1547.00	37733.00
1548.00	37445.00
1549.00	36861.00
1550.00	36907.00
1551.00	36321.00
1552.00	35665.00
1553.00	35747.00
1554.00	35395.00
1555.00	35345.00
1556.00	35247.00
1557.00	35315.00
1558.00	35318.00
1559.00	35588.00
1560.00	35500.00
1561.00	35985.00
1562.00	36350.00
1563.00	36975.00
1564.00	37596.00
1565.00	38082.00
1566.00	38870.00
1567.00	39279.00
1568.00	40123.00
1569.00	41172.00
1570.00	42087.00
1571.00	42473.00
1572.00	44234.00
1573.00	44983.00
1574.00	45806.00
1575.00	47194.00
1576.00	48194.00
1577.00	49659.00
1578.00	50975.00
1579.00	52262.00
1580.00	53686.00
1581.00	55364.00
1582.00	56558.00
1583.00	58147.00
1584.00	59659.00
1585.00	61702.00
1586.00	63303.00
1587.00	64693.00
1588.00	66407.00
1589.00	68111.00
1590.00	69270.00
1591.00	71673.00
1592.00	73122.00
1593.00	74320.00
1594.00	75303.00
1595.00	78095.00
1596.00	78401.00
1597.00	79968.00
1598.00	81404.00
1599.00	82297.00
1600.00	83488.00
1601.00	84511.00
1602.00	84842.00
1603.00	85679.00
1604.00	86590.00
1605.00	86254.00
1606.00	86892.00
1607.00	87376.00
1608.00	86899.00
1609.00	86635.00
1610.00	86166.00
1611.00	86150.00
1612.00	85540.00
1613.00	84487.00
1614.00	84614.00
1615.00	83090.00
1616.00	82546.00
1617.00	80732.00
1618.00	80349.00
1619.00	79096.00
1620.00	77210.00
1621.00	76132.00
1622.00	74445.00
1623.00	72702.00
1624.00	71209.00
1625.00	69797.00
1626.00	68216.00
1627.00	66695.00
1628.00	65042.00
1629.00	63646.00
1630.00	61252.00
1631.00	60395.00
1632.00	58088.00
1633.00	56707.00
1634.00	55008.00
1635.00	53573.00
1636.00	52227.00
1637.00	50089.00
1638.00	49314.00
1639.00	47604.00
1640.00	46423.00
1641.00	44525.00
1642.00	43462.00
1643.00	43234.00
1644.00	41192.00
1645.00	40041.00
1646.00	39355.00
1647.00	37905.00
1648.00	36780.00
1649.00	36386.00
1650.00	35167.00
1651.00	34776.00
1652.00	33942.00
1653.00	32744.00
1654.00	32194.00
1655.00	31683.00
1656.00	31130.00
1657.00	29949.00
1658.00	29937.00
1659.00	29338.00
1660.00	28675.00
1661.00	28440.00
1662.00	27937.00
1663.00	27658.00
1664.00	27247.00
1665.00	26786.00
1666.00	26569.00
1667.00	26181.00
1668.00	26300.00
1669.00	25598.00
1670.00	25646.00
1671.00	25927.00
1672.00	25958.00
1673.00	25748.00
1674.00	26044.00
1675.00	26588.00
1676.00	26565.00
1677.00	27045.00
1678.00	27831.00
1679.00	28630.00
1680.00	29401.00
1681.00	31194.00
1682.00	32278.00
1683.00	33705.00
1684.00	35514.00
1685.00	37374.00
1686.00	39292.00
1687.00	41676.00
1688.00	44226.00
1689.00	46399.00
1690.00	49185.00
1691.00	51584.00
1692.00	54190.00
1693.00	56748.00
1694.00	59469.00
1695.00	61669.00
1696.00	63316.00
1697.00	65020.00
1698.00	66996.00
1699.00	68375.00
1700.00	69020.00
1701.00	68733.00
1702.00	69349.00
1703.00	68804.00
1704.00	67727.00
1705.00	66330.00
1706.00	64725.00
1707.00	62201.00
1708.00	60186.00
1709.00	57278.00
1710.00	54626.00
1711.00	51479.00
1712.00	48552.00
1713.00	45379.00
1714.00	42614.00
1715.00	39665.00
1716.00	36967.00
1717.00	34763.00
1718.00	32300.00
1719.00	30419.00
1720.00	28486.00
1721.00	27009.00
1722.00	25883.00
1723.00	24711.00
1724.00	23279.00
1725.00	22522.00
1726.00	22198.00
1727.00	21791.00
1728.00	20789.00
1729.00	20302.00
1730.00	20383.00
1731.00	19822.00
1732.00	19791.00
1733.00	19768.00
1734.00	19618.00
1735.00	19324.00
1736.00	19236.00
1737.00	19136.00
1738.00	19404.00
1739.00	19165.00
1740.00	19529.00
1741.00	19389.00
1742.00	19445.00
1743.00	19259.00
1744.00	19569.00
1745.00	19301.00
1746.00	19728.00
1747.00	19670.00
1748.00	19581.00
1749.00	19815.00
1750.00	19809.00
1751.00	19998.00
1752.00	19878.00
1753.00	20164.00
1754.00	20292.00
1755.00	20433.00
1756.00	20593.00
1757.00	20794.00
1758.00	20956.00
1759.00	20899.00
1760.00	21156.00
1761.00	21108.00
1762.00	21131.00
1763.00	21769.00
1764.00	22044.00
1765.00	22152.00
1766.00	22261.00
1767.00	22549.00
1768.00	22973.00
1769.00	22969.00
1770.00	23229.00
1771.00	23432.00
1772.00	23540.00
1773.00	23885.00
1774.00	24010.00
1775.00	24086.00
1776.00	24595.00
1777.00	24869.00
1778.00	24516.00
1779.00	25424.00
1780.00	25136.00
1781.00	25809.00
1782.00	25319.00
1783.00	25901.00
1784.00	26384.00
1785.00	26094.00
1786.00	26110.00
1787.00	26305.00
1788.00	26430.00
1789.00	26748.00
1790.00	26343.00
1791.00	26578.00
1792.00	26481.00
1793.00	26499.00
1794.00	26314.00
1795.00	26459.00
1796.00	26768.00
1797.00	26369.00
1798.00	26316.00
1799.00	26026.00
1800.00	25747.00
1801.00	25754.00
1802.00	25618.00
1803.00	25264.00
1804.00	25148.00
1805.00	25031.00
1806.00	24623.00
1807.00	24546.00
1808.00	24525.00
1809.00	24236.00
1810.00	24185.00
1811.00	23434.00
1812.00	23107.00
1813.00	22854.00
1814.00	22438.00
1815.00	22380.00
1816.00	21858.00
1817.00	21789.00
1818.00	21433.00
1819.00	21027.00
1820.00	20780.00
1821.00	20647.00
1822.00	20208.00
1823.00	19718.00
1824.00	19685.00
1825.00	19244.00
1826.00	18746.00
1827.00	18670.00
1828.00	18431.00
1829.00	17946.00
1830.00	17470.00
1831.00	17181.00
1832.00	17160.00
1833.00	16881.00
1834.00	16560.00
1835.00	16407.00
1836.00	16211.00
1837.00	15868.00
1838.00	15556.00
1839.00	15451.00
1840.00	15072.00
1841.00	14940.00
1842.00	14719.00
1843.00	14498.00
1844.00	14235.00
1845.00	14072.00
1846.00	13967.00
1847.00	13690.00
1848.00	13453.00
1849.00	13519.00
1850.00	13351.00
1851.00	12887.00
1852.00	12888.00
1853.00	12778.00
1854.00	12554.00
1855.00	12444.00
1856.00	12271.00
1857.00	12189.00
1858.00	11830.00
1859.00	11777.00
1860.00	11851.00
1861.00	11420.00
1862.00	11346.00
1863.00	11316.00
1864.00	11306.00
1865.00	11009.00
1866.00	11132.00
1867.00	10763.00
1868.00	10657.00
1869.00	10888.00
1870.00	10615.00
1871.00	10503.00
1872.00	10449.00
1873.00	10455.00
1874.00	10499.00
1875.00	10282.00
1876.00	10271.00
1877.00	10090.00
1878.00	9993.00
1879.00	10018.00
1880.00	10022.00
1881.00	10014.00
1882.00	9831.00
1883.00	9861.00
1884.00	9963.00
1885.00	10001.00
1886.00	9929.00
1887.00	9839.00
1888.00	9834.00
1889.00	10122.00
1890.00	10256.00
1891.00	10175.00
1892.00	10289.00
1893.00	10451.00
1894.00	10514.00
1895.00	10780.00
1896.00	10960.00
1897.00	11431.00
1898.00	11556.00
1899.00	12051.00
1900.00	12464.00
1901.00	13025.00
1902.00	13214.00
1903.00	13565.00
1904.00	13963.00
1905.00	14398.00
1906.00	14363.00
1907.00	14808.00
1908.00	14997.00
1909.00	15144.00
1910.00	15245.00
1911.00	15322.00
1912.00	15136.00
1913.00	15034.00
1914.00	14984.00
1915.00	14601.00
1916.00	14559.00
1917.00	13929.00
1918.00	13589.00
1919.00	13209.00
1920.00	12928.00
1921.00	12255.00
1922.00	11910.00
1923.00	11682.00
1924.00	11192.00
1925.00	10681.00
1926.00	10419.00
1927.00	10136.00
1928.00	9677.00
1929.00	9573.00
1930.00	9608.00
1931.00	9311.00
1932.00	9143.00
1933.00	9092.00
1934.00	8893.00
1935.00	8926.00
1936.00	8845.00
1937.00	8804.00
1938.00	8726.00
1939.00	8861.00
1940.00	8833.00
1941.00	8698.00
1942.00	8865.00
1943.00	8835.00
1944.00	8821.00
1945.00	8602.00
1946.00	8767.00
1947.00	8771.00
1948.00	8545.00
1949.00	8578.00
1950.00	8331.00
1951.00	8416.00
1952.00	8319.00
1953.00	8219.00
1954.00	8169.00
1955.00	7874.00
1956.00	7875.00
1957.00	7865.00
1958.00	7662.00
1959.00	7478.00
1960.00	7534.00
1961.00	7498.00
1962.00	7395.00
1963.00	7237.00
1964.00	7307.00
1965.00	7324.00
1966.00	7146.00
1967.00	7182.00
1968.00	7058.00
1969.00	6886.00
1970.00	7027.00
1971.00	6945.00
1972.00	7034.00
1973.00	6973.00
1974.00	6997.00
1975.00	6910.00
1976.00	6995.00
1977.00	6834.00
1978.00	6885.00
1979.00	6925.00
1980.00	6779.00
1981.00	6733.00
1982.00	6892.00
1983.00	6788.00
1984.00	6790.00
1985.00	6831.00
1986.00	6695.00
1987.00	6937.00
1988.00	6764.00
1989.00	6717.00
1990.00	6904.00
1991.00	6934.00
1992.00	6653.00
1993.00	6732.00
1994.00	6746.00
1995.00	6911.00
1996.00	6766.00
1997.00	6610.00
1998.00	6791.00
1999.00	6774.00
2000.00	6572.00
2001.00	6732.00
2002.00	6689.00
2003.00	6701.00
2004.00	6674.00
2005.00	6746.00
2006.00	6696.00
2007.00	6604.00
2008.00	6611.00
2009.00	6503.00
2010.00	6515.00
2011.00	6590.00
2012.00	6693.00
2013.00	6719.00
2014.00	6589.00
2015.00	6536.00
2016.00	6537.00
2017.00	6501.00
2018.00	6671.00
2019.00	6669.00
2020.00	6582.00
2021.00	6610.00
2022.00	6521.00
2023.00	6658.00
2024.00	6376.00
2025.00	6590.00
2026.00	6377.00
2027.00	6470.00
2028.00	6369.00
2029.00	6416.00
2030.00	6508.00
2031.00	6453.00
2032.00	6346.00
2033.00	6500.00
2034.00	6401.00
2035.00	6348.00
2036.00	6351.00
2037.00	6423.00
2038.00	6446.00
2039.00	6306.00
2040.00	6271.00
2041.00	6280.00
2042.00	6283.00
2043.00	6329.00
2044.00	6244.00
2045.00	6185.00
2046.00	6303.00
2047.00	6357.00
2048.00	 0.00
