Date:	08/02/2022		
Time:	18:03		
Sample name:	JC36_74_2		
Position:	1050.690018	mm	
Sample surface:	6.879041	cm	
Tube anode:	Mo		
Tube voltage:	30	kV	
Tube current:	30	mA	
Comments	not in position		
Gain	2.150000		
peaking_time	0.300000	m-sec	
trigger_threshold	40.000000	V	
mca_bin_width	2.000000	no:	
number_mca_channels	2048.000000	no:	
gap_time	0.100000	m-sec	
trigger_peaking_time	0.050000	m-sec	
livetime	12.242434	seconds	
runtime	15.000138	seconds	
input_count_rate	32483.735609	cps	
output_count_rate	26511.755208	cps	
triggers	478459.000000	seconds	
events_in_run	365281.000000	seconds	
channel	content		
 1.00	 0.00
 2.00	 0.00
 3.00	 0.00
 4.00	 0.00
 5.00	 0.00
 6.00	 0.00
 7.00	 0.00
 8.00	 0.00
 9.00	 0.00
10.00	 0.00
11.00	 0.00
12.00	 0.00
13.00	 0.00
14.00	 0.00
15.00	 0.00
16.00	 0.00
17.00	 0.00
18.00	 0.00
19.00	 0.00
20.00	 0.00
21.00	 0.00
22.00	 0.00
23.00	 0.00
24.00	 0.00
25.00	 0.00
26.00	 0.00
27.00	 0.00
28.00	 0.00
29.00	 0.00
30.00	 0.00
31.00	385.00
32.00	443.00
33.00	389.00
34.00	392.00
35.00	387.00
36.00	415.00
37.00	371.00
38.00	386.00
39.00	356.00
40.00	397.00
41.00	377.00
42.00	406.00
43.00	356.00
44.00	374.00
45.00	431.00
46.00	483.00
47.00	530.00
48.00	643.00
49.00	833.00
50.00	1122.00
51.00	1648.00
52.00	2390.00
53.00	3007.00
54.00	4074.00
55.00	5364.00
56.00	7147.00
57.00	9759.00
58.00	14104.00
59.00	20024.00
60.00	25203.00
61.00	29642.00
62.00	32271.00
63.00	33424.00
64.00	33357.00
65.00	32660.00
66.00	31431.00
67.00	30283.00
68.00	29564.00
69.00	28628.00
70.00	28343.00
71.00	28340.00
72.00	28145.00
73.00	27762.00
74.00	27202.00
75.00	27353.00
76.00	27168.00
77.00	26928.00
78.00	27367.00
79.00	26981.00
80.00	27065.00
81.00	27115.00
82.00	27472.00
83.00	27705.00
84.00	28199.00
85.00	28504.00
86.00	28500.00
87.00	28030.00
88.00	27245.00
89.00	26960.00
90.00	26185.00
91.00	25310.00
92.00	24749.00
93.00	24324.00
94.00	24223.00
95.00	23551.00
96.00	23076.00
97.00	23109.00
98.00	22775.00
99.00	22784.00
100.00	22690.00
101.00	22195.00
102.00	21965.00
103.00	21759.00
104.00	21623.00
105.00	21382.00
106.00	21017.00
107.00	20674.00
108.00	20331.00
109.00	19893.00
110.00	19887.00
111.00	19920.00
112.00	19505.00
113.00	19318.00
114.00	19071.00
115.00	18923.00
116.00	18752.00
117.00	18757.00
118.00	18712.00
119.00	18288.00
120.00	17996.00
121.00	17882.00
122.00	17696.00
123.00	17337.00
124.00	16976.00
125.00	16864.00
126.00	16416.00
127.00	16194.00
128.00	15987.00
129.00	16004.00
130.00	15703.00
131.00	15549.00
132.00	15300.00
133.00	15108.00
134.00	15029.00
135.00	15057.00
136.00	14887.00
137.00	15044.00
138.00	15117.00
139.00	15511.00
140.00	16216.00
141.00	17102.00
142.00	18070.00
143.00	19149.00
144.00	20110.00
145.00	20315.00
146.00	20448.00
147.00	20131.00
148.00	19552.00
149.00	18928.00
150.00	18198.00
151.00	17728.00
152.00	17395.00
153.00	16818.00
154.00	16911.00
155.00	16525.00
156.00	15709.00
157.00	15030.00
158.00	14437.00
159.00	13964.00
160.00	14152.00
161.00	15024.00
162.00	16958.00
163.00	20924.00
164.00	27684.00
165.00	37021.00
166.00	48640.00
167.00	62715.00
168.00	76799.00
169.00	87707.00
170.00	95033.00
171.00	95956.00
172.00	90273.00
173.00	80718.00
174.00	68397.00
175.00	55367.00
176.00	43255.00
177.00	34529.00
178.00	28424.00
179.00	24286.00
180.00	22631.00
181.00	21741.00
182.00	22310.00
183.00	23948.00
184.00	27569.00
185.00	31970.00
186.00	38953.00
187.00	47136.00
188.00	55518.00
189.00	62767.00
190.00	67648.00
191.00	68807.00
192.00	66647.00
193.00	60839.00
194.00	52987.00
195.00	43509.00
196.00	34621.00
197.00	27012.00
198.00	21003.00
199.00	17017.00
200.00	13972.00
201.00	12374.00
202.00	11399.00
203.00	10938.00
204.00	10519.00
205.00	10503.00
206.00	10270.00
207.00	10198.00
208.00	10366.00
209.00	10263.00
210.00	10421.00
211.00	10373.00
212.00	10479.00
213.00	10838.00
214.00	11210.00
215.00	11552.00
216.00	12324.00
217.00	13260.00
218.00	14599.00
219.00	16279.00
220.00	17813.00
221.00	19628.00
222.00	20978.00
223.00	21803.00
224.00	22287.00
225.00	22498.00
226.00	21423.00
227.00	20303.00
228.00	18562.00
229.00	16583.00
230.00	14765.00
231.00	13116.00
232.00	11758.00
233.00	10632.00
234.00	10063.00
235.00	9338.00
236.00	8864.00
237.00	8929.00
238.00	8679.00
239.00	8874.00
240.00	8929.00
241.00	9016.00
242.00	9358.00
243.00	10038.00
244.00	10680.00
245.00	12356.00
246.00	14997.00
247.00	19125.00
248.00	26083.00
249.00	36742.00
250.00	51046.00
251.00	70252.00
252.00	93008.00
253.00	117734.00
254.00	142636.00
255.00	164044.00
256.00	177763.00
257.00	183918.00
258.00	177747.00
259.00	164522.00
260.00	142201.00
261.00	116790.00
262.00	91804.00
263.00	68747.00
264.00	50272.00
265.00	36306.00
266.00	26449.00
267.00	19939.00
268.00	17927.00
269.00	17059.00
270.00	18027.00
271.00	19639.00
272.00	21619.00
273.00	23718.00
274.00	25483.00
275.00	27228.00
276.00	27636.00
277.00	27057.00
278.00	25762.00
279.00	24775.00
280.00	23685.00
281.00	23384.00
282.00	24220.00
283.00	26857.00
284.00	30815.00
285.00	36107.00
286.00	42087.00
287.00	47764.00
288.00	52803.00
289.00	55672.00
290.00	56371.00
291.00	54813.00
292.00	50130.00
293.00	44354.00
294.00	37720.00
295.00	30827.00
296.00	24762.00
297.00	19685.00
298.00	15819.00
299.00	12878.00
300.00	11269.00
301.00	10197.00
302.00	9877.00
303.00	9732.00
304.00	9801.00
305.00	10633.00
306.00	11305.00
307.00	12219.00
308.00	13236.00
309.00	14807.00
310.00	16514.00
311.00	18722.00
312.00	21582.00
313.00	26381.00
314.00	33172.00
315.00	43813.00
316.00	58961.00
317.00	79735.00
318.00	106586.00
319.00	138104.00
320.00	173414.00
321.00	209764.00
322.00	241937.00
323.00	265893.00
324.00	280146.00
325.00	280576.00
326.00	266443.00
327.00	241633.00
328.00	208701.00
329.00	172428.00
330.00	136195.00
331.00	102567.00
332.00	74596.00
333.00	53015.00
334.00	37417.00
335.00	26689.00
336.00	20499.00
337.00	16859.00
338.00	15563.00
339.00	16091.00
340.00	17484.00
341.00	20402.00
342.00	24745.00
343.00	30863.00
344.00	40084.00
345.00	53418.00
346.00	73715.00
347.00	104577.00
348.00	152809.00
349.00	226527.00
350.00	341155.00
351.00	510688.00
352.00	756756.00
353.00	1092252.00
354.00	1526666.00
355.00	2061561.00
356.00	2679146.00
357.00	3336903.00
358.00	3965608.00
359.00	4511381.00
360.00	4912127.00
361.00	5086034.00
362.00	5037794.00
363.00	4761559.00
364.00	4300056.00
365.00	3695435.00
366.00	3034243.00
367.00	2379781.00
368.00	1784272.00
369.00	1277540.00
370.00	879034.00
371.00	578925.00
372.00	368309.00
373.00	229397.00
374.00	141139.00
375.00	90048.00
376.00	62259.00
377.00	50002.00
378.00	46949.00
379.00	50276.00
380.00	60678.00
381.00	76969.00
382.00	101921.00
383.00	136369.00
384.00	182855.00
385.00	243582.00
386.00	316083.00
387.00	399080.00
388.00	489949.00
389.00	580928.00
390.00	663430.00
391.00	726429.00
392.00	765271.00
393.00	771309.00
394.00	746416.00
395.00	693695.00
396.00	614812.00
397.00	524670.00
398.00	428722.00
399.00	336058.00
400.00	253009.00
401.00	183433.00
402.00	128211.00
403.00	86692.00
404.00	57375.00
405.00	37577.00
406.00	24774.00
407.00	16914.00
408.00	12053.00
409.00	9409.00
410.00	8085.00
411.00	7275.00
412.00	6845.00
413.00	6719.00
414.00	6690.00
415.00	6865.00
416.00	6756.00
417.00	6870.00
418.00	6972.00
419.00	7097.00
420.00	7163.00
421.00	7291.00
422.00	7543.00
423.00	7809.00
424.00	8128.00
425.00	8909.00
426.00	9891.00
427.00	11558.00
428.00	13584.00
429.00	17000.00
430.00	22319.00
431.00	29360.00
432.00	38237.00
433.00	50100.00
434.00	63956.00
435.00	79338.00
436.00	96084.00
437.00	112975.00
438.00	127389.00
439.00	139687.00
440.00	148321.00
441.00	150044.00
442.00	146578.00
443.00	138682.00
444.00	126000.00
445.00	111301.00
446.00	95267.00
447.00	79572.00
448.00	65240.00
449.00	53984.00
450.00	44439.00
451.00	37467.00
452.00	32607.00
453.00	29557.00
454.00	27007.00
455.00	25733.00
456.00	24422.00
457.00	22803.00
458.00	21544.00
459.00	19910.00
460.00	18475.00
461.00	17123.00
462.00	15820.00
463.00	14901.00
464.00	14906.00
465.00	14776.00
466.00	14946.00
467.00	15911.00
468.00	16800.00
469.00	18066.00
470.00	19555.00
471.00	21202.00
472.00	22811.00
473.00	24525.00
474.00	26866.00
475.00	28888.00
476.00	31554.00
477.00	33979.00
478.00	36636.00
479.00	38711.00
480.00	40941.00
481.00	42074.00
482.00	42769.00
483.00	42433.00
484.00	40882.00
485.00	38776.00
486.00	36271.00
487.00	32448.00
488.00	29292.00
489.00	25965.00
490.00	23246.00
491.00	20544.00
492.00	18489.00
493.00	16512.00
494.00	15335.00
495.00	14940.00
496.00	14045.00
497.00	13908.00
498.00	14110.00
499.00	14117.00
500.00	14599.00
501.00	14967.00
502.00	14940.00
503.00	15813.00
504.00	16247.00
505.00	16552.00
506.00	17258.00
507.00	18016.00
508.00	18449.00
509.00	18962.00
510.00	19746.00
511.00	20641.00
512.00	21485.00
513.00	22398.00
514.00	23324.00
515.00	24104.00
516.00	25230.00
517.00	26424.00
518.00	27596.00
519.00	29088.00
520.00	31445.00
521.00	34212.00
522.00	36325.00
523.00	39276.00
524.00	42543.00
525.00	45160.00
526.00	47547.00
527.00	49904.00
528.00	50706.00
529.00	51299.00
530.00	50902.00
531.00	48883.00
532.00	46465.00
533.00	43714.00
534.00	40653.00
535.00	37295.00
536.00	34268.00
537.00	31866.00
538.00	29470.00
539.00	28206.00
540.00	26940.00
541.00	25694.00
542.00	25946.00
543.00	25482.00
544.00	25766.00
545.00	25679.00
546.00	26142.00
547.00	26094.00
548.00	26251.00
549.00	27202.00
550.00	27223.00
551.00	27727.00
552.00	28028.00
553.00	28687.00
554.00	28891.00
555.00	29439.00
556.00	29585.00
557.00	30152.00
558.00	30614.00
559.00	31037.00
560.00	31504.00
561.00	32558.00
562.00	33250.00
563.00	34165.00
564.00	36075.00
565.00	37933.00
566.00	40804.00
567.00	43688.00
568.00	47788.00
569.00	52145.00
570.00	57595.00
571.00	62670.00
572.00	67875.00
573.00	71873.00
574.00	76016.00
575.00	78283.00
576.00	79131.00
577.00	78646.00
578.00	76367.00
579.00	72672.00
580.00	68785.00
581.00	63214.00
582.00	57796.00
583.00	52137.00
584.00	46690.00
585.00	42384.00
586.00	38502.00
587.00	35584.00
588.00	33171.00
589.00	31883.00
590.00	30491.00
591.00	29777.00
592.00	29788.00
593.00	29973.00
594.00	30633.00
595.00	31443.00
596.00	31564.00
597.00	32898.00
598.00	34038.00
599.00	34941.00
600.00	36694.00
601.00	38197.00
602.00	40192.00
603.00	43292.00
604.00	47804.00
605.00	52687.00
606.00	61818.00
607.00	75556.00
608.00	95252.00
609.00	126607.00
610.00	172436.00
611.00	238394.00
612.00	330436.00
613.00	454328.00
614.00	622422.00
615.00	836411.00
616.00	1097081.00
617.00	1405383.00
618.00	1755822.00
619.00	2134555.00
620.00	2524490.00
621.00	2895270.00
622.00	3227653.00
623.00	3498911.00
624.00	3681071.00
625.00	3755965.00
626.00	3724074.00
627.00	3579059.00
628.00	3344189.00
629.00	3032105.00
630.00	2670858.00
631.00	2284645.00
632.00	1895609.00
633.00	1533599.00
634.00	1208891.00
635.00	927923.00
636.00	695575.00
637.00	511501.00
638.00	371665.00
639.00	267598.00
640.00	193443.00
641.00	142343.00
642.00	108244.00
643.00	85700.00
644.00	71278.00
645.00	62394.00
646.00	56990.00
647.00	53899.00
648.00	52365.00
649.00	51311.00
650.00	50679.00
651.00	50197.00
652.00	51093.00
653.00	51060.00
654.00	51130.00
655.00	51659.00
656.00	52400.00
657.00	53199.00
658.00	54112.00
659.00	54619.00
660.00	55357.00
661.00	56243.00
662.00	56990.00
663.00	57996.00
664.00	59127.00
665.00	60658.00
666.00	62831.00
667.00	65075.00
668.00	67328.00
669.00	69377.00
670.00	73623.00
671.00	77972.00
672.00	83683.00
673.00	91547.00
674.00	102205.00
675.00	115758.00
676.00	134519.00
677.00	157270.00
678.00	187719.00
679.00	223684.00
680.00	266946.00
681.00	315496.00
682.00	368849.00
683.00	425078.00
684.00	481076.00
685.00	534110.00
686.00	578422.00
687.00	614611.00
688.00	638993.00
689.00	644628.00
690.00	638329.00
691.00	613829.00
692.00	578523.00
693.00	532148.00
694.00	478024.00
695.00	419462.00
696.00	361783.00
697.00	306064.00
698.00	255880.00
699.00	211806.00
700.00	174434.00
701.00	143912.00
702.00	120228.00
703.00	100904.00
704.00	87929.00
705.00	78737.00
706.00	72959.00
707.00	69064.00
708.00	66647.00
709.00	65574.00
710.00	64932.00
711.00	65815.00
712.00	66157.00
713.00	67964.00
714.00	68273.00
715.00	70263.00
716.00	71788.00
717.00	73972.00
718.00	76409.00
719.00	78385.00
720.00	81032.00
721.00	83466.00
722.00	86702.00
723.00	88079.00
724.00	90518.00
725.00	93160.00
726.00	94433.00
727.00	96018.00
728.00	96760.00
729.00	96787.00
730.00	96644.00
731.00	95631.00
732.00	93697.00
733.00	92107.00
734.00	89644.00
735.00	87071.00
736.00	84311.00
737.00	82023.00
738.00	79371.00
739.00	77651.00
740.00	75763.00
741.00	74075.00
742.00	72594.00
743.00	72040.00
744.00	70987.00
745.00	70252.00
746.00	70362.00
747.00	70151.00
748.00	70114.00
749.00	69621.00
750.00	70229.00
751.00	69743.00
752.00	70324.00
753.00	69894.00
754.00	70718.00
755.00	70338.00
756.00	70186.00
757.00	70580.00
758.00	71189.00
759.00	71129.00
760.00	71282.00
761.00	72145.00
762.00	72549.00
763.00	73316.00
764.00	73408.00
765.00	74418.00
766.00	75155.00
767.00	76776.00
768.00	77476.00
769.00	78689.00
770.00	79136.00
771.00	81753.00
772.00	82976.00
773.00	84778.00
774.00	87055.00
775.00	89957.00
776.00	91973.00
777.00	94269.00
778.00	98152.00
779.00	101868.00
780.00	104703.00
781.00	107767.00
782.00	112328.00
783.00	115279.00
784.00	119324.00
785.00	122720.00
786.00	126786.00
787.00	128538.00
788.00	132495.00
789.00	134910.00
790.00	137713.00
791.00	139295.00
792.00	142309.00
793.00	143711.00
794.00	145714.00
795.00	146729.00
796.00	148743.00
797.00	150318.00
798.00	149981.00
799.00	151632.00
800.00	153571.00
801.00	154808.00
802.00	156730.00
803.00	158072.00
804.00	160428.00
805.00	163901.00
806.00	167667.00
807.00	173098.00
808.00	179334.00
809.00	186886.00
810.00	195811.00
811.00	205362.00
812.00	217195.00
813.00	229038.00
814.00	239564.00
815.00	250564.00
816.00	259391.00
817.00	267286.00
818.00	272843.00
819.00	273653.00
820.00	274014.00
821.00	269907.00
822.00	262444.00
823.00	252559.00
824.00	239851.00
825.00	227179.00
826.00	212717.00
827.00	199308.00
828.00	185983.00
829.00	174509.00
830.00	163852.00
831.00	155162.00
832.00	148183.00
833.00	142637.00
834.00	138229.00
835.00	136168.00
836.00	134055.00
837.00	133234.00
838.00	133877.00
839.00	133883.00
840.00	134235.00
841.00	135295.00
842.00	135441.00
843.00	135783.00
844.00	135101.00
845.00	134686.00
846.00	134767.00
847.00	133855.00
848.00	132081.00
849.00	131567.00
850.00	130496.00
851.00	129322.00
852.00	128596.00
853.00	127675.00
854.00	127100.00
855.00	126405.00
856.00	125549.00
857.00	125540.00
858.00	125866.00
859.00	125369.00
860.00	125889.00
861.00	125214.00
862.00	126087.00
863.00	126684.00
864.00	126866.00
865.00	126488.00
866.00	127673.00
867.00	127551.00
868.00	127601.00
869.00	128481.00
870.00	128916.00
871.00	129286.00
872.00	129337.00
873.00	129358.00
874.00	129692.00
875.00	129625.00
876.00	130180.00
877.00	131121.00
878.00	131445.00
879.00	131967.00
880.00	133284.00
881.00	133842.00
882.00	134139.00
883.00	135457.00
884.00	135986.00
885.00	137815.00
886.00	138828.00
887.00	140250.00
888.00	140424.00
889.00	142930.00
890.00	144977.00
891.00	146215.00
892.00	148721.00
893.00	150538.00
894.00	152116.00
895.00	154242.00
896.00	157060.00
897.00	158585.00
898.00	161042.00
899.00	163232.00
900.00	165200.00
901.00	168106.00
902.00	168803.00
903.00	171723.00
904.00	172950.00
905.00	175837.00
906.00	177324.00
907.00	178393.00
908.00	179836.00
909.00	181459.00
910.00	182760.00
911.00	183865.00
912.00	185274.00
913.00	185580.00
914.00	186947.00
915.00	188054.00
916.00	189501.00
917.00	190197.00
918.00	191011.00
919.00	191958.00
920.00	193118.00
921.00	193843.00
922.00	194979.00
923.00	196477.00
924.00	197693.00
925.00	198418.00
926.00	199966.00
927.00	202862.00
928.00	203790.00
929.00	206326.00
930.00	207734.00
931.00	211458.00
932.00	215204.00
933.00	219072.00
934.00	224179.00
935.00	228515.00
936.00	232244.00
937.00	237922.00
938.00	242588.00
939.00	247748.00
940.00	251538.00
941.00	254652.00
942.00	257107.00
943.00	258537.00
944.00	258313.00
945.00	256713.00
946.00	254194.00
947.00	250128.00
948.00	244647.00
949.00	239265.00
950.00	233573.00
951.00	228544.00
952.00	222034.00
953.00	216688.00
954.00	211150.00
955.00	206786.00
956.00	203884.00
957.00	199802.00
958.00	197589.00
959.00	195679.00
960.00	194974.00
961.00	193399.00
962.00	194153.00
963.00	193124.00
964.00	194824.00
965.00	194225.00
966.00	195474.00
967.00	197113.00
968.00	197285.00
969.00	198526.00
970.00	199450.00
971.00	199017.00
972.00	198950.00
973.00	198128.00
974.00	197083.00
975.00	194750.00
976.00	194460.00
977.00	190968.00
978.00	189786.00
979.00	186717.00
980.00	184012.00
981.00	182803.00
982.00	180922.00
983.00	178733.00
984.00	176798.00
985.00	175412.00
986.00	174513.00
987.00	172671.00
988.00	172426.00
989.00	171526.00
990.00	170959.00
991.00	170255.00
992.00	169175.00
993.00	169165.00
994.00	169290.00
995.00	169289.00
996.00	168269.00
997.00	168640.00
998.00	168041.00
999.00	168117.00
1000.00	167377.00
1001.00	167643.00
1002.00	168057.00
1003.00	168037.00
1004.00	167972.00
1005.00	167823.00
1006.00	167498.00
1007.00	167317.00
1008.00	167397.00
1009.00	167994.00
1010.00	167517.00
1011.00	167932.00
1012.00	168486.00
1013.00	169017.00
1014.00	168842.00
1015.00	168748.00
1016.00	169929.00
1017.00	170627.00
1018.00	170730.00
1019.00	171607.00
1020.00	172542.00
1021.00	173935.00
1022.00	174477.00
1023.00	174027.00
1024.00	174725.00
1025.00	175697.00
1026.00	176536.00
1027.00	175369.00
1028.00	176670.00
1029.00	177041.00
1030.00	176861.00
1031.00	176892.00
1032.00	176581.00
1033.00	176741.00
1034.00	176309.00
1035.00	176244.00
1036.00	176648.00
1037.00	176586.00
1038.00	176674.00
1039.00	176119.00
1040.00	176337.00
1041.00	175946.00
1042.00	176975.00
1043.00	176825.00
1044.00	177650.00
1045.00	178390.00
1046.00	178236.00
1047.00	178748.00
1048.00	179700.00
1049.00	180172.00
1050.00	180649.00
1051.00	181971.00
1052.00	181863.00
1053.00	182869.00
1054.00	184455.00
1055.00	184483.00
1056.00	185018.00
1057.00	185881.00
1058.00	186914.00
1059.00	186353.00
1060.00	188122.00
1061.00	187781.00
1062.00	188106.00
1063.00	189268.00
1064.00	189576.00
1065.00	189183.00
1066.00	189177.00
1067.00	190317.00
1068.00	189997.00
1069.00	189676.00
1070.00	189867.00
1071.00	190769.00
1072.00	190458.00
1073.00	189916.00
1074.00	190079.00
1075.00	190795.00
1076.00	190373.00
1077.00	191331.00
1078.00	191432.00
1079.00	191297.00
1080.00	190848.00
1081.00	191878.00
1082.00	191388.00
1083.00	191870.00
1084.00	192235.00
1085.00	193464.00
1086.00	194176.00
1087.00	193783.00
1088.00	193890.00
1089.00	195909.00
1090.00	196875.00
1091.00	197856.00
1092.00	198233.00
1093.00	200337.00
1094.00	201177.00
1095.00	202584.00
1096.00	203560.00
1097.00	204760.00
1098.00	205146.00
1099.00	205598.00
1100.00	205694.00
1101.00	207503.00
1102.00	206664.00
1103.00	206265.00
1104.00	206603.00
1105.00	206437.00
1106.00	205832.00
1107.00	204424.00
1108.00	203617.00
1109.00	203092.00
1110.00	202632.00
1111.00	202549.00
1112.00	201370.00
1113.00	201803.00
1114.00	200595.00
1115.00	201037.00
1116.00	200181.00
1117.00	199795.00
1118.00	200695.00
1119.00	200821.00
1120.00	200438.00
1121.00	200655.00
1122.00	200768.00
1123.00	200712.00
1124.00	201815.00
1125.00	201251.00
1126.00	201803.00
1127.00	201308.00
1128.00	201469.00
1129.00	201894.00
1130.00	201848.00
1131.00	203487.00
1132.00	203062.00
1133.00	203612.00
1134.00	202685.00
1135.00	203618.00
1136.00	204499.00
1137.00	203332.00
1138.00	203313.00
1139.00	203839.00
1140.00	204982.00
1141.00	204187.00
1142.00	203871.00
1143.00	205157.00
1144.00	206383.00
1145.00	206274.00
1146.00	207003.00
1147.00	208905.00
1148.00	210463.00
1149.00	212802.00
1150.00	214900.00
1151.00	217588.00
1152.00	221528.00
1153.00	224011.00
1154.00	226903.00
1155.00	230717.00
1156.00	233576.00
1157.00	236496.00
1158.00	238873.00
1159.00	241271.00
1160.00	242123.00
1161.00	242888.00
1162.00	244103.00
1163.00	243797.00
1164.00	242323.00
1165.00	240478.00
1166.00	237924.00
1167.00	236436.00
1168.00	233194.00
1169.00	228903.00
1170.00	225972.00
1171.00	223847.00
1172.00	219825.00
1173.00	217085.00
1174.00	214393.00
1175.00	211917.00
1176.00	208637.00
1177.00	208263.00
1178.00	206590.00
1179.00	204458.00
1180.00	204103.00
1181.00	203084.00
1182.00	203829.00
1183.00	202362.00
1184.00	202459.00
1185.00	202078.00
1186.00	202523.00
1187.00	201989.00
1188.00	202120.00
1189.00	201924.00
1190.00	203075.00
1191.00	203112.00
1192.00	202776.00
1193.00	204197.00
1194.00	204151.00
1195.00	203310.00
1196.00	203394.00
1197.00	203583.00
1198.00	204119.00
1199.00	205311.00
1200.00	205342.00
1201.00	205862.00
1202.00	205957.00
1203.00	206220.00
1204.00	207329.00
1205.00	206912.00
1206.00	207777.00
1207.00	207204.00
1208.00	206722.00
1209.00	208291.00
1210.00	208823.00
1211.00	208542.00
1212.00	208065.00
1213.00	209520.00
1214.00	209541.00
1215.00	209975.00
1216.00	210291.00
1217.00	210991.00
1218.00	210870.00
1219.00	211349.00
1220.00	212086.00
1221.00	213032.00
1222.00	212879.00
1223.00	214111.00
1224.00	213262.00
1225.00	214629.00
1226.00	213447.00
1227.00	214539.00
1228.00	214707.00
1229.00	215723.00
1230.00	215840.00
1231.00	216008.00
1232.00	215550.00
1233.00	216227.00
1234.00	216681.00
1235.00	217039.00
1236.00	215996.00
1237.00	216152.00
1238.00	216861.00
1239.00	216342.00
1240.00	216942.00
1241.00	217139.00
1242.00	217035.00
1243.00	217244.00
1244.00	217552.00
1245.00	216271.00
1246.00	217897.00
1247.00	216640.00
1248.00	216694.00
1249.00	217661.00
1250.00	217519.00
1251.00	217077.00
1252.00	217415.00
1253.00	217470.00
1254.00	217692.00
1255.00	217565.00
1256.00	217784.00
1257.00	218001.00
1258.00	217513.00
1259.00	218234.00
1260.00	217928.00
1261.00	218065.00
1262.00	217749.00
1263.00	219202.00
1264.00	218280.00
1265.00	217701.00
1266.00	218560.00
1267.00	219806.00
1268.00	219469.00
1269.00	218893.00
1270.00	218893.00
1271.00	219361.00
1272.00	218526.00
1273.00	218914.00
1274.00	219735.00
1275.00	219539.00
1276.00	219801.00
1277.00	219874.00
1278.00	220006.00
1279.00	220563.00
1280.00	220897.00
1281.00	221123.00
1282.00	222387.00
1283.00	223462.00
1284.00	224857.00
1285.00	224960.00
1286.00	226721.00
1287.00	228732.00
1288.00	230273.00
1289.00	232649.00
1290.00	235381.00
1291.00	238933.00
1292.00	241297.00
1293.00	244987.00
1294.00	247570.00
1295.00	250732.00
1296.00	253745.00
1297.00	256969.00
1298.00	259513.00
1299.00	262097.00
1300.00	264665.00
1301.00	266823.00
1302.00	267523.00
1303.00	268480.00
1304.00	268846.00
1305.00	269097.00
1306.00	269132.00
1307.00	266785.00
1308.00	264945.00
1309.00	261905.00
1310.00	260130.00
1311.00	257194.00
1312.00	255085.00
1313.00	251133.00
1314.00	247774.00
1315.00	244583.00
1316.00	242079.00
1317.00	239620.00
1318.00	237116.00
1319.00	234039.00
1320.00	232489.00
1321.00	230946.00
1322.00	229892.00
1323.00	228750.00
1324.00	227583.00
1325.00	227638.00
1326.00	226830.00
1327.00	225996.00
1328.00	226407.00
1329.00	226624.00
1330.00	225016.00
1331.00	225860.00
1332.00	225186.00
1333.00	225780.00
1334.00	226094.00
1335.00	225852.00
1336.00	225851.00
1337.00	226923.00
1338.00	226035.00
1339.00	227405.00
1340.00	227380.00
1341.00	226812.00
1342.00	227318.00
1343.00	227461.00
1344.00	227426.00
1345.00	227279.00
1346.00	228002.00
1347.00	227460.00
1348.00	227560.00
1349.00	229217.00
1350.00	228787.00
1351.00	230236.00
1352.00	231473.00
1353.00	232887.00
1354.00	233530.00
1355.00	235849.00
1356.00	239226.00
1357.00	241827.00
1358.00	246713.00
1359.00	252663.00
1360.00	259296.00
1361.00	267569.00
1362.00	277363.00
1363.00	289468.00
1364.00	302762.00
1365.00	318458.00
1366.00	335341.00
1367.00	355364.00
1368.00	374896.00
1369.00	396717.00
1370.00	419078.00
1371.00	441950.00
1372.00	464453.00
1373.00	486581.00
1374.00	507930.00
1375.00	523691.00
1376.00	541664.00
1377.00	552387.00
1378.00	560888.00
1379.00	564305.00
1380.00	564880.00
1381.00	561177.00
1382.00	551116.00
1383.00	538156.00
1384.00	521557.00
1385.00	503093.00
1386.00	481009.00
1387.00	459074.00
1388.00	434362.00
1389.00	409457.00
1390.00	387575.00
1391.00	365077.00
1392.00	341572.00
1393.00	323186.00
1394.00	305516.00
1395.00	289774.00
1396.00	277108.00
1397.00	265912.00
1398.00	254647.00
1399.00	247253.00
1400.00	240781.00
1401.00	236300.00
1402.00	231537.00
1403.00	228648.00
1404.00	225953.00
1405.00	224478.00
1406.00	223101.00
1407.00	221642.00
1408.00	221078.00
1409.00	220381.00
1410.00	220794.00
1411.00	219670.00
1412.00	220530.00
1413.00	219823.00
1414.00	219910.00
1415.00	219726.00
1416.00	218487.00
1417.00	218056.00
1418.00	218973.00
1419.00	219354.00
1420.00	219136.00
1421.00	219502.00
1422.00	219781.00
1423.00	220008.00
1424.00	218993.00
1425.00	219390.00
1426.00	219204.00
1427.00	218747.00
1428.00	219676.00
1429.00	219210.00
1430.00	219401.00
1431.00	219235.00
1432.00	219637.00
1433.00	219822.00
1434.00	219355.00
1435.00	220081.00
1436.00	220756.00
1437.00	221474.00
1438.00	222332.00
1439.00	222192.00
1440.00	223037.00
1441.00	222356.00
1442.00	223664.00
1443.00	224215.00
1444.00	224877.00
1445.00	226899.00
1446.00	226901.00
1447.00	227557.00
1448.00	229245.00
1449.00	230829.00
1450.00	230753.00
1451.00	231881.00
1452.00	233585.00
1453.00	235124.00
1454.00	235484.00
1455.00	236136.00
1456.00	236137.00
1457.00	237070.00
1458.00	237596.00
1459.00	237895.00
1460.00	237385.00
1461.00	236695.00
1462.00	235800.00
1463.00	235288.00
1464.00	235365.00
1465.00	234297.00
1466.00	233967.00
1467.00	231885.00
1468.00	231993.00
1469.00	230255.00
1470.00	229820.00
1471.00	229845.00
1472.00	228348.00
1473.00	228817.00
1474.00	228170.00
1475.00	226682.00
1476.00	226849.00
1477.00	228132.00
1478.00	227482.00
1479.00	227272.00
1480.00	227213.00
1481.00	227383.00
1482.00	227174.00
1483.00	228259.00
1484.00	227845.00
1485.00	228355.00
1486.00	228470.00
1487.00	229084.00
1488.00	228230.00
1489.00	228423.00
1490.00	228955.00
1491.00	229768.00
1492.00	229678.00
1493.00	229798.00
1494.00	231506.00
1495.00	230624.00
1496.00	231163.00
1497.00	231311.00
1498.00	231866.00
1499.00	232426.00
1500.00	232372.00
1501.00	233202.00
1502.00	233472.00
1503.00	234877.00
1504.00	235151.00
1505.00	235638.00
1506.00	236442.00
1507.00	237439.00
1508.00	237845.00
1509.00	238899.00
1510.00	239164.00
1511.00	240780.00
1512.00	241306.00
1513.00	242712.00
1514.00	245910.00
1515.00	246964.00
1516.00	249360.00
1517.00	251474.00
1518.00	254464.00
1519.00	257929.00
1520.00	261140.00
1521.00	265049.00
1522.00	270014.00
1523.00	274944.00
1524.00	280193.00
1525.00	284923.00
1526.00	290629.00
1527.00	297416.00
1528.00	302945.00
1529.00	311129.00
1530.00	318694.00
1531.00	323083.00
1532.00	331136.00
1533.00	336862.00
1534.00	344376.00
1535.00	348898.00
1536.00	355043.00
1537.00	359939.00
1538.00	364402.00
1539.00	368416.00
1540.00	368957.00
1541.00	371356.00
1542.00	371071.00
1543.00	370037.00
1544.00	369048.00
1545.00	367061.00
1546.00	365035.00
1547.00	360522.00
1548.00	358081.00
1549.00	354137.00
1550.00	350665.00
1551.00	346988.00
1552.00	343045.00
1553.00	339223.00
1554.00	337298.00
1555.00	336988.00
1556.00	335248.00
1557.00	336423.00
1558.00	334455.00
1559.00	337368.00
1560.00	338868.00
1561.00	343517.00
1562.00	346890.00
1563.00	351381.00
1564.00	357162.00
1565.00	361835.00
1566.00	368653.00
1567.00	376809.00
1568.00	384186.00
1569.00	391003.00
1570.00	399917.00
1571.00	408999.00
1572.00	419508.00
1573.00	428958.00
1574.00	439624.00
1575.00	451886.00
1576.00	463354.00
1577.00	474405.00
1578.00	487225.00
1579.00	501301.00
1580.00	515001.00
1581.00	530388.00
1582.00	544565.00
1583.00	559396.00
1584.00	576006.00
1585.00	589582.00
1586.00	605650.00
1587.00	622215.00
1588.00	639063.00
1589.00	654394.00
1590.00	670911.00
1591.00	686826.00
1592.00	702084.00
1593.00	717092.00
1594.00	729318.00
1595.00	745184.00
1596.00	758581.00
1597.00	770517.00
1598.00	781938.00
1599.00	793767.00
1600.00	802613.00
1601.00	810069.00
1602.00	818848.00
1603.00	823320.00
1604.00	828648.00
1605.00	831954.00
1606.00	835368.00
1607.00	834754.00
1608.00	834055.00
1609.00	834281.00
1610.00	829523.00
1611.00	827392.00
1612.00	822050.00
1613.00	813457.00
1614.00	806924.00
1615.00	798929.00
1616.00	787579.00
1617.00	778534.00
1618.00	766119.00
1619.00	755317.00
1620.00	740767.00
1621.00	727975.00
1622.00	713328.00
1623.00	699397.00
1624.00	683647.00
1625.00	666993.00
1626.00	651974.00
1627.00	637665.00
1628.00	620346.00
1629.00	603897.00
1630.00	586868.00
1631.00	570452.00
1632.00	554945.00
1633.00	540366.00
1634.00	524416.00
1635.00	508588.00
1636.00	494995.00
1637.00	481239.00
1638.00	467881.00
1639.00	452835.00
1640.00	439259.00
1641.00	427445.00
1642.00	415242.00
1643.00	403518.00
1644.00	392271.00
1645.00	382117.00
1646.00	371677.00
1647.00	361713.00
1648.00	351639.00
1649.00	344529.00
1650.00	335270.00
1651.00	326748.00
1652.00	321136.00
1653.00	312989.00
1654.00	305557.00
1655.00	299427.00
1656.00	293707.00
1657.00	287688.00
1658.00	282719.00
1659.00	277543.00
1660.00	272697.00
1661.00	267567.00
1662.00	265149.00
1663.00	260132.00
1664.00	257236.00
1665.00	253515.00
1666.00	251508.00
1667.00	249447.00
1668.00	247373.00
1669.00	245658.00
1670.00	244221.00
1671.00	243620.00
1672.00	243707.00
1673.00	246097.00
1674.00	246054.00
1675.00	250070.00
1676.00	253688.00
1677.00	258125.00
1678.00	265164.00
1679.00	272344.00
1680.00	281306.00
1681.00	293058.00
1682.00	306039.00
1683.00	321611.00
1684.00	338318.00
1685.00	356987.00
1686.00	375889.00
1687.00	397088.00
1688.00	421554.00
1689.00	444768.00
1690.00	468966.00
1691.00	493193.00
1692.00	519138.00
1693.00	541088.00
1694.00	563852.00
1695.00	584799.00
1696.00	604548.00
1697.00	620624.00
1698.00	634260.00
1699.00	646140.00
1700.00	652804.00
1701.00	653077.00
1702.00	655743.00
1703.00	650562.00
1704.00	641147.00
1705.00	626524.00
1706.00	611099.00
1707.00	590623.00
1708.00	568706.00
1709.00	541286.00
1710.00	513090.00
1711.00	488258.00
1712.00	457099.00
1713.00	428336.00
1714.00	402114.00
1715.00	376710.00
1716.00	351100.00
1717.00	327291.00
1718.00	305222.00
1719.00	287046.00
1720.00	270545.00
1721.00	255506.00
1722.00	242512.00
1723.00	232866.00
1724.00	223342.00
1725.00	215143.00
1726.00	209042.00
1727.00	204488.00
1728.00	199731.00
1729.00	196031.00
1730.00	193869.00
1731.00	191107.00
1732.00	190120.00
1733.00	186942.00
1734.00	186652.00
1735.00	185743.00
1736.00	185211.00
1737.00	184641.00
1738.00	184480.00
1739.00	184944.00
1740.00	184528.00
1741.00	184627.00
1742.00	184804.00
1743.00	185323.00
1744.00	185242.00
1745.00	186461.00
1746.00	186831.00
1747.00	187725.00
1748.00	188019.00
1749.00	187720.00
1750.00	189577.00
1751.00	190243.00
1752.00	191321.00
1753.00	192812.00
1754.00	194056.00
1755.00	194316.00
1756.00	195609.00
1757.00	197012.00
1758.00	198810.00
1759.00	200084.00
1760.00	202004.00
1761.00	203628.00
1762.00	205130.00
1763.00	207636.00
1764.00	208462.00
1765.00	210047.00
1766.00	213090.00
1767.00	214678.00
1768.00	216815.00
1769.00	219372.00
1770.00	221368.00
1771.00	222927.00
1772.00	225608.00
1773.00	227951.00
1774.00	229232.00
1775.00	231773.00
1776.00	234581.00
1777.00	236972.00
1778.00	238371.00
1779.00	240892.00
1780.00	241612.00
1781.00	245746.00
1782.00	245290.00
1783.00	246970.00
1784.00	248652.00
1785.00	250090.00
1786.00	250621.00
1787.00	252277.00
1788.00	252475.00
1789.00	254103.00
1790.00	253515.00
1791.00	253897.00
1792.00	254431.00
1793.00	254995.00
1794.00	254525.00
1795.00	253378.00
1796.00	253249.00
1797.00	251751.00
1798.00	250722.00
1799.00	250466.00
1800.00	247689.00
1801.00	247708.00
1802.00	245524.00
1803.00	244915.00
1804.00	242398.00
1805.00	239343.00
1806.00	237868.00
1807.00	235012.00
1808.00	232589.00
1809.00	229423.00
1810.00	227594.00
1811.00	224886.00
1812.00	221782.00
1813.00	219373.00
1814.00	216752.00
1815.00	213066.00
1816.00	210775.00
1817.00	206623.00
1818.00	203970.00
1819.00	200256.00
1820.00	197438.00
1821.00	194830.00
1822.00	191041.00
1823.00	188197.00
1824.00	185078.00
1825.00	182341.00
1826.00	179479.00
1827.00	176379.00
1828.00	173474.00
1829.00	170570.00
1830.00	167321.00
1831.00	164724.00
1832.00	162226.00
1833.00	159315.00
1834.00	157211.00
1835.00	155188.00
1836.00	152203.00
1837.00	149566.00
1838.00	147589.00
1839.00	145990.00
1840.00	142387.00
1841.00	141057.00
1842.00	138795.00
1843.00	136314.00
1844.00	135013.00
1845.00	133074.00
1846.00	130621.00
1847.00	129512.00
1848.00	127893.00
1849.00	126100.00
1850.00	124436.00
1851.00	122491.00
1852.00	121664.00
1853.00	119876.00
1854.00	118596.00
1855.00	116858.00
1856.00	115529.00
1857.00	114414.00
1858.00	112655.00
1859.00	111693.00
1860.00	109950.00
1861.00	108811.00
1862.00	107988.00
1863.00	106501.00
1864.00	105419.00
1865.00	104735.00
1866.00	102983.00
1867.00	102286.00
1868.00	101707.00
1869.00	101021.00
1870.00	100424.00
1871.00	99266.00
1872.00	99306.00
1873.00	98086.00
1874.00	97545.00
1875.00	96147.00
1876.00	96045.00
1877.00	95489.00
1878.00	95863.00
1879.00	95292.00
1880.00	93952.00
1881.00	93845.00
1882.00	93546.00
1883.00	93422.00
1884.00	93134.00
1885.00	93257.00
1886.00	93281.00
1887.00	93525.00
1888.00	93997.00
1889.00	94909.00
1890.00	95074.00
1891.00	96278.00
1892.00	96911.00
1893.00	98925.00
1894.00	101014.00
1895.00	102498.00
1896.00	104779.00
1897.00	108326.00
1898.00	110615.00
1899.00	114781.00
1900.00	117958.00
1901.00	121732.00
1902.00	125347.00
1903.00	128156.00
1904.00	132079.00
1905.00	135306.00
1906.00	138186.00
1907.00	140637.00
1908.00	142391.00
1909.00	144472.00
1910.00	144306.00
1911.00	144978.00
1912.00	144894.00
1913.00	144031.00
1914.00	141209.00
1915.00	139105.00
1916.00	135794.00
1917.00	132610.00
1918.00	128474.00
1919.00	125706.00
1920.00	121332.00
1921.00	116818.00
1922.00	112584.00
1923.00	109092.00
1924.00	104883.00
1925.00	101759.00
1926.00	97973.00
1927.00	95467.00
1928.00	93026.00
1929.00	90398.00
1930.00	89093.00
1931.00	87306.00
1932.00	86247.00
1933.00	85584.00
1934.00	84778.00
1935.00	84808.00
1936.00	83926.00
1937.00	83384.00
1938.00	83141.00
1939.00	83592.00
1940.00	83421.00
1941.00	83477.00
1942.00	82831.00
1943.00	83490.00
1944.00	82510.00
1945.00	82541.00
1946.00	81902.00
1947.00	81774.00
1948.00	80784.00
1949.00	80487.00
1950.00	79770.00
1951.00	78719.00
1952.00	77970.00
1953.00	76628.00
1954.00	76325.00
1955.00	74787.00
1956.00	73468.00
1957.00	72804.00
1958.00	71892.00
1959.00	70734.00
1960.00	70052.00
1961.00	69559.00
1962.00	69119.00
1963.00	68204.00
1964.00	66845.00
1965.00	67182.00
1966.00	66888.00
1967.00	66046.00
1968.00	66051.00
1969.00	65384.00
1970.00	65880.00
1971.00	65415.00
1972.00	65238.00
1973.00	64647.00
1974.00	64960.00
1975.00	64467.00
1976.00	64337.00
1977.00	64505.00
1978.00	64247.00
1979.00	64748.00
1980.00	64083.00
1981.00	63940.00
1982.00	64088.00
1983.00	63526.00
1984.00	63764.00
1985.00	63630.00
1986.00	63471.00
1987.00	63553.00
1988.00	63568.00
1989.00	63468.00
1990.00	63165.00
1991.00	63514.00
1992.00	63284.00
1993.00	63230.00
1994.00	63114.00
1995.00	62948.00
1996.00	63065.00
1997.00	63295.00
1998.00	62497.00
1999.00	62848.00
2000.00	62321.00
2001.00	63029.00
2002.00	62337.00
2003.00	62558.00
2004.00	62316.00
2005.00	62972.00
2006.00	61914.00
2007.00	62276.00
2008.00	62128.00
2009.00	61943.00
2010.00	61611.00
2011.00	62009.00
2012.00	61709.00
2013.00	61605.00
2014.00	61756.00
2015.00	61478.00
2016.00	61421.00
2017.00	61340.00
2018.00	60933.00
2019.00	61202.00
2020.00	61111.00
2021.00	60742.00
2022.00	60905.00
2023.00	60689.00
2024.00	60598.00
2025.00	60450.00
2026.00	60199.00
2027.00	60443.00
2028.00	60319.00
2029.00	60024.00
2030.00	60295.00
2031.00	60293.00
2032.00	60440.00
2033.00	59854.00
2034.00	59991.00
2035.00	60029.00
2036.00	59013.00
2037.00	59126.00
2038.00	59950.00
2039.00	59696.00
2040.00	59214.00
2041.00	58938.00
2042.00	58626.00
2043.00	59437.00
2044.00	59502.00
2045.00	58817.00
2046.00	59352.00
2047.00	58829.00
2048.00	 0.00
